block,trial,target,response,correct,rt
0,q,-,-,True,1.2204320430755615
0,v,-,-,True,0.5653741359710693
0,b,-,-,True,0.8720622062683105
0,v,-,-,True,0.9909040927886963
0,v,m,m,True,0.461437463760376
0,v,m,-,False,0.45286035537719727
0,f,-,-,True,0.45336484909057617
0,x,-,-,True,1.2358510494232178
0,x,m,m,True,0.5384271144866943
0,x,m,-,False,0.4631309509277344
0,q,-,-,True,0.4871950149536133
0,r,-,-,True,0.5511572360992432
0,r,m,m,True,0.4446122646331787
0,h,-,-,True,0.45090770721435547
0,b,-,-,True,0.9341423511505127
0,f,-,-,True,0.4759397506713867
0,f,m,m,True,0.437758207321167
0,f,m,-,False,0.42165660858154297
0,n,-,-,True,0.857813835144043
0,b,-,-,True,0.43587327003479004
0,p,-,-,True,0.5635874271392822
0,p,m,-,False,0.6221811771392822
0,y,-,-,True,0.41118764877319336
0,g,-,-,True,0.47583508491516113
1,c,-,-,True,1.6072807312011719
1,v,-,-,True,0.43604111671447754
1,s,-,-,True,0.6169548034667969
1,s,m,m,True,0.42957496643066406
1,s,m,-,False,0.5105717182159424
1,y,-,-,True,0.7580797672271729
1,x,-,-,True,0.5051567554473877
1,c,-,-,True,0.9236083030700684
1,c,m,m,True,1.4823973178863525
1,v,-,-,True,0.6528494358062744
1,n,-,-,True,0.8356637954711914
1,p,-,-,True,0.5148928165435791
1,j,-,-,True,0.6696791648864746
1,p,-,-,True,0.5178680419921875
1,p,m,m,True,0.5238621234893799
1,c,-,-,True,0.6400744915008545
1,h,-,-,True,0.6145279407501221
1,h,m,m,True,0.5777370929718018
1,q,-,-,True,0.9824845790863037
1,c,-,-,True,0.7420802116394043
1,c,m,m,True,0.5249991416931152
1,c,m,m,True,0.5317027568817139
1,c,m,m,True,0.517608642578125
1,q,-,-,True,0.5076165199279785
2,n,-,-,True,0.9912559986114502
2,d,-,-,True,0.928030252456665
2,d,m,m,True,0.6340782642364502
2,y,-,-,True,0.47551798820495605
2,s,-,-,True,0.5105452537536621
2,h,-,-,True,0.8047034740447998
2,h,m,m,True,0.599853515625
2,y,-,-,True,0.4865148067474365
2,y,m,m,True,1.0155627727508545
2,k,-,-,True,0.47121405601501465
2,k,m,m,True,0.4923977851867676
2,s,-,-,True,1.0227246284484863
2,s,m,m,True,0.44436025619506836
2,r,-,-,True,0.5309090614318848
2,r,m,m,True,0.5200021266937256
2,t,-,-,True,0.5015490055084229
2,t,m,m,True,0.5183324813842773
2,z,-,-,True,0.551194429397583
2,b,-,-,True,1.5268423557281494
2,y,-,-,True,0.6065964698791504
2,t,-,INVALID:y,False,0.6168348789215088
2,z,-,INVALID:ließlich,False,0.5235579013824463
2,z,m,m,True,0.5385475158691406
2,g,-,-,True,0.5818276405334473
3,w,-,-,True,0.510404109954834
3,w,m,m,True,0.5157325267791748
3,l,-,-,True,1.0098979473114014
3,l,m,m,True,0.574897289276123
3,l,m,m,True,1.0803277492523193
3,l,m,m,True,0.5819804668426514
3,b,-,-,True,0.6255917549133301
3,x,-,-,True,0.6138038635253906
3,h,-,-,True,0.8064444065093994
3,l,-,-,True,0.5671982765197754
3,w,-,-,True,1.040194034576416
3,w,m,m,True,0.9926881790161133
3,w,m,m,True,0.5991268157958984
3,w,m,m,True,0.5122098922729492
3,g,-,-,True,0.5230228900909424
3,x,-,-,True,0.9745333194732666
3,x,m,-,False,0.4988410472869873
3,h,-,-,True,0.4860374927520752
3,v,-,-,True,0.9943490028381348
3,p,-,-,True,0.6529519557952881
3,n,-,-,True,0.5191285610198975
3,b,-,-,True,0.621826171875
3,j,-,-,True,0.6168363094329834
3,k,-,-,True,0.5475547313690186
4,n,-,-,True,0.4641599655151367
4,l,-,-,True,0.6000440120697021
4,l,m,m,True,0.5909454822540283
4,d,-,-,True,0.5838367938995361
4,w,-,-,True,1.065053939819336
4,f,-,-,True,0.5115392208099365
4,d,-,-,True,0.6266324520111084
4,d,m,m,True,1.093919038772583
4,q,-,-,True,0.518200159072876
4,n,-,-,True,1.0505335330963135
4,c,-,-,True,0.5263090133666992
4,f,-,-,True,0.5047283172607422
4,l,-,-,True,0.9678268432617188
4,l,m,m,True,0.48452210426330566
4,l,m,m,True,0.6595664024353027
4,l,m,m,True,0.6469097137451172
4,l,m,m,True,0.5528693199157715
4,x,-,-,True,0.7071831226348877
4,x,m,m,True,0.8382112979888916
4,j,-,-,True,1.5033025741577148
4,w,-,-,True,0.5464122295379639
4,b,-,-,True,0.5416522026062012
4,b,m,m,True,0.5344915390014648
4,g,-,-,True,1.0345056056976318
5,f,-,-,True,0.6068305969238281
5,f,m,m,True,0.9875407218933105
5,n,-,-,True,0.4841039180755615
5,h,-,-,True,0.7850179672241211
5,s,-,-,True,0.6155011653900146
5,c,-,-,True,0.5962381362915039
5,j,-,-,True,1.5532498359680176
5,p,-,-,True,0.5104351043701172
5,p,m,m,True,0.6144065856933594
5,t,-,-,True,0.635159969329834
5,f,-,-,True,0.626589298248291
5,s,-,-,True,0.5012454986572266
5,j,-,-,True,0.6041259765625
5,j,m,m,True,0.5068783760070801
5,y,-,-,True,0.5290837287902832
5,f,-,-,True,0.5646731853485107
5,f,m,m,True,0.7413277626037598
5,z,-,-,True,0.5615313053131104
5,z,m,m,True,1.0279431343078613
5,z,m,-,False,0.6693155765533447
5,z,m,m,True,0.4723043441772461
5,l,-,-,True,0.6264867782592773
5,l,m,m,True,0.5238568782806396
5,v,-,-,True,0.600078821182251
6,s,-,-,True,0.5460507869720459
6,s,m,m,True,0.5937786102294922
6,l,-,-,True,0.505211591720581
6,l,m,m,True,0.5898919105529785
6,l,m,m,True,0.4912087917327881
6,l,m,m,True,0.5987753868103027
6,l,m,m,True,0.5884153842926025
6,t,-,-,True,0.6026370525360107
6,c,-,-,True,0.45467233657836914
6,c,m,m,True,0.5248253345489502
6,c,m,-,False,0.6073074340820312
6,y,-,-,True,0.9812278747558594
6,n,-,-,True,0.6241393089294434
6,n,m,m,True,0.601386308670044
6,t,-,-,True,0.6111946105957031
6,w,-,-,True,0.5231649875640869
6,q,-,-,True,0.5099656581878662
6,w,-,m,False,0.502129316329956
6,j,-,-,True,0.6318526268005371
6,f,-,-,True,0.6060309410095215
6,w,-,-,True,0.5213160514831543
6,v,-,-,True,1.4487457275390625
6,t,-,m,False,1.4782850742340088
6,h,-,-,True,0.6297323703765869
7,v,-,-,True,1.0466272830963135
7,g,-,-,True,0.5039412975311279
7,n,-,-,True,0.6033809185028076
7,n,m,m,True,0.5324127674102783
7,v,-,-,True,0.7664682865142822
7,v,m,m,True,0.5100109577178955
7,f,-,-,True,0.5090665817260742
7,t,-,-,True,1.0139045715332031
7,h,-,-,True,0.6030304431915283
7,h,m,m,True,0.608964204788208
7,c,-,-,True,1.0228002071380615
7,c,m,m,True,0.595151424407959
7,c,m,-,False,0.4955284595489502
7,c,m,m,True,0.6151943206787109
7,x,-,-,True,0.4424319267272949
7,x,m,m,True,0.5970931053161621
7,x,m,-,False,0.6071679592132568
7,r,-,-,True,0.6079840660095215
7,j,-,-,True,0.5187990665435791
7,f,-,-,True,0.6215710639953613
7,n,-,-,True,0.8048162460327148
7,b,-,-,True,1.5085484981536865
7,d,-,-,True,0.5465602874755859
7,v,-,-,True,1.774432897567749
8,r,-,-,True,0.5228159427642822
8,j,-,-,True,0.5060079097747803
8,j,m,m,True,0.4908003807067871
8,j,m,-,False,1.0406641960144043
8,d,-,-,True,0.5067007541656494
8,v,-,-,True,0.6004223823547363
8,t,-,-,True,1.4627954959869385
8,w,-,-,True,1.0965158939361572
8,w,m,m,True,0.892310380935669
8,f,-,-,True,0.598308801651001
8,y,-,-,True,0.6195216178894043
8,y,m,m,True,0.6185832023620605
8,c,-,-,True,0.6394326686859131
8,c,m,m,True,0.526789665222168
8,z,-,-,True,0.587085485458374
8,s,-,-,True,0.6429402828216553
8,z,-,-,True,0.5490360260009766
8,c,-,m,False,0.6615302562713623
8,c,m,-,False,0.6401505470275879
8,h,-,-,True,0.5219736099243164
8,h,m,m,True,0.6519851684570312
8,g,-,-,True,0.6513657569885254
8,g,m,m,True,0.6250298023223877
8,t,-,-,True,0.6381685733795166
9,s,-,-,True,1.019697666168213
9,s,m,m,True,0.5938823223114014
9,l,-,-,True,0.5632658004760742
9,b,-,-,True,0.6858630180358887
9,v,-,m,False,0.5959904193878174
9,s,-,-,True,1.1964337825775146
9,s,m,m,True,0.5729269981384277
9,s,m,m,True,0.47319650650024414
9,v,-,-,True,0.4801034927368164
9,v,m,m,True,0.5112824440002441
9,v,m,m,True,0.4775421619415283
9,d,-,-,True,0.5116188526153564
9,b,-,-,True,0.4960966110229492
9,y,-,-,True,0.5279390811920166
9,y,m,m,True,0.5755071640014648
9,j,-,-,True,0.5701110363006592
9,b,-,-,True,1.5508155822753906
9,h,-,-,True,0.5594720840454102
9,h,m,m,True,0.5669379234313965
9,p,-,-,True,0.6051933765411377
9,l,-,-,True,0.5985696315765381
9,j,-,-,True,0.5154554843902588
9,j,m,m,True,0.4994924068450928
9,b,-,-,True,0.6324102878570557
10,p,-,-,True,1.2150754928588867
10,p,m,m,True,0.5209441184997559
10,z,-,-,True,0.5094971656799316
10,g,-,-,True,0.612725019454956
10,y,-,-,True,0.9964253902435303
10,y,m,m,True,0.953035831451416
10,y,m,-,False,0.6161608695983887
10,b,-,-,True,0.5151238441467285
10,j,-,-,True,0.7103462219238281
10,p,-,-,True,0.5330071449279785
10,h,-,-,True,0.7376635074615479
10,h,m,m,True,0.6122093200683594
10,h,m,-,False,0.5666415691375732
10,h,m,m,True,0.7208325862884521
10,v,-,-,True,0.5188784599304199
10,f,-,-,True,0.5955421924591064
10,g,-,-,True,0.5170261859893799
10,w,-,-,True,0.749014139175415
10,l,-,-,True,0.553661584854126
10,l,m,m,True,0.5428924560546875
10,l,m,-,False,0.5224370956420898
10,x,-,-,True,0.6516518592834473
10,g,-,-,True,0.6242702007293701
10,w,-,-,True,0.5429494380950928
11,g,-,-,True,0.6452562808990479
11,n,-,-,True,0.49994683265686035
11,n,m,m,True,0.7375984191894531
11,f,-,-,True,0.9282653331756592
11,x,-,-,True,0.5156192779541016
11,h,-,-,True,0.6280558109283447
11,z,-,-,True,0.8267688751220703
11,z,m,m,True,0.4931607246398926
11,d,-,-,True,0.5131993293762207
11,d,m,m,True,0.7989451885223389
11,q,-,-,True,0.5446269512176514
11,s,-,-,True,0.6300454139709473
11,c,-,-,True,0.706928014755249
11,j,-,-,True,0.8670413494110107
11,j,m,m,True,0.7856090068817139
11,j,m,m,True,0.543795108795166
11,p,-,-,True,0.705385684967041
11,z,-,-,True,0.5360710620880127
11,z,m,m,True,0.6517496109008789
11,x,-,-,True,0.5143938064575195
11,w,-,-,True,0.6362707614898682
11,j,-,-,True,0.51833176612854
11,j,m,m,True,0.9742250442504883
11,j,m,m,True,0.6231784820556641
12,q,-,-,True,0.9322619438171387
12,z,-,-,True,0.5543804168701172
12,z,m,m,True,0.8368659019470215
12,b,-,-,True,1.4955778121948242
12,b,m,m,True,0.5122191905975342
12,v,-,-,True,0.6402664184570312
12,v,m,m,True,0.6046566963195801
12,x,-,-,True,0.5288116931915283
12,f,-,-,True,0.6155202388763428
12,f,m,m,True,0.5362777709960938
12,j,-,-,True,0.6206283569335938
12,j,m,m,True,0.6215901374816895
12,p,-,-,True,0.6359736919403076
12,p,m,m,True,0.676654577255249
12,n,-,-,True,0.786592960357666
12,b,-,-,True,0.6491553783416748
12,k,-,-,True,0.9290766716003418
12,z,-,-,True,0.7717046737670898
12,h,-,-,True,1.1383991241455078
12,f,-,-,True,0.5393781661987305
12,p,-,-,True,0.7501890659332275
12,p,m,m,True,0.5406749248504639
12,p,m,m,True,0.623924732208252
12,g,-,-,True,0.685530424118042
13,x,-,-,True,0.5987124443054199
13,x,m,m,True,0.6284539699554443
13,x,m,m,True,0.511272668838501
13,r,-,-,True,0.6136176586151123
13,h,-,-,True,0.5184993743896484
13,r,-,-,True,0.5410723686218262
13,r,m,m,True,0.5218946933746338
13,r,m,m,True,0.7617120742797852
13,l,-,-,True,0.6607005596160889
13,d,-,-,True,0.5277504920959473
13,x,-,-,True,0.5284850597381592
13,w,-,-,True,1.0289826393127441
13,w,m,m,True,0.5469233989715576
13,r,-,m,False,0.5540339946746826
13,f,-,-,True,0.5328662395477295
13,f,m,m,True,0.6336236000061035
13,c,-,-,True,0.6448636054992676
13,q,-,-,True,0.6325364112854004
13,l,-,-,True,1.5815277099609375
13,l,m,m,True,1.0651962757110596
13,j,-,-,True,0.5274136066436768
13,c,-,-,True,0.630535364151001
13,c,m,m,True,0.49602794647216797
13,h,-,-,True,0.5776498317718506
14,y,-,-,True,1.0365841388702393
14,p,-,-,True,0.5022737979888916
14,p,m,m,True,0.49934911727905273
14,f,-,-,True,0.5081932544708252
14,t,-,-,True,0.5357811450958252
14,r,-,-,True,0.5253102779388428
14,h,-,-,True,0.7218656539916992
14,s,-,-,True,0.612201452255249
14,j,-,-,True,0.6416220664978027
14,c,-,-,True,0.46747684478759766
14,c,m,m,True,0.666522741317749
14,c,m,-,False,1.0577428340911865
14,w,-,-,True,0.6367802619934082
14,q,-,-,True,0.6469295024871826
14,t,-,-,True,0.7049167156219482
14,t,m,m,True,0.701484203338623
14,j,-,-,True,0.6196370124816895
14,j,m,m,True,0.791715145111084
14,j,m,m,True,0.5434987545013428
14,b,-,-,True,0.5344712734222412
14,b,m,m,True,0.7026247978210449
14,x,-,-,True,0.5325353145599365
14,g,-,-,True,0.561140775680542
14,g,m,m,True,0.566584587097168
15,h,-,-,True,0.4600403308868408
15,h,-,m,False,0.5893182754516602
15,z,-,-,True,0.6164193153381348
15,q,-,-,True,0.6039292812347412
15,q,m,m,True,0.5237977504730225
15,j,-,-,True,0.524817705154419
15,j,m,m,True,0.510831356048584
15,r,-,-,True,0.5215997695922852
15,r,m,m,True,0.6241769790649414
15,r,m,m,True,0.7361948490142822
15,k,-,-,True,1.050851583480835
15,l,-,-,True,0.781165361404419
15,l,m,m,True,0.5357732772827148
15,k,-,-,True,0.5458850860595703
15,k,m,m,True,0.5154221057891846
15,c,-,-,True,1.488577127456665
15,n,-,-,True,0.5474615097045898
15,n,m,m,True,1.0176584720611572
15,t,-,-,True,0.624697208404541
15,t,m,m,True,0.7234606742858887
15,h,-,-,True,0.6061856746673584
15,f,-,-,True,0.6861810684204102
15,g,-,-,True,0.6936964988708496
15,z,-,-,True,0.5801403522491455
16,w,-,-,True,0.5241587162017822
16,f,-,-,True,0.4726901054382324
16,f,m,m,True,0.587470293045044
16,t,-,-,True,0.6405003070831299
16,t,m,m,True,0.5540618896484375
16,r,-,-,True,0.626579761505127
16,x,-,-,True,1.632767677307129
16,x,m,m,True,0.6641702651977539
16,d,-,-,True,0.5505485534667969
16,t,-,-,True,0.6363070011138916
16,t,m,m,True,0.560767412185669
16,t,m,m,True,0.8000149726867676
16,g,-,-,True,0.4874267578125
16,x,-,-,True,0.5448417663574219
16,v,-,-,True,0.5444777011871338
16,b,-,-,True,1.4981167316436768
16,h,-,-,True,0.652177095413208
16,q,-,-,True,1.490415334701538
16,q,m,m,True,0.8919003009796143
16,q,m,m,True,0.6424167156219482
16,q,m,m,True,0.5047607421875
16,r,-,-,True,0.5427069664001465
16,z,-,-,True,0.6698744297027588
16,g,-,-,True,0.6593513488769531
17,z,-,-,True,0.5161652565002441
17,z,-,m,False,0.4971809387207031
17,w,-,-,True,0.626338005065918
17,k,-,-,True,0.5297255516052246
17,w,-,-,True,0.6001214981079102
17,w,m,m,True,0.6041615009307861
17,w,m,m,True,0.5230777263641357
17,p,-,-,True,0.5373530387878418
17,p,m,m,True,0.5335049629211426
17,z,-,-,True,0.5199828147888184
17,v,-,m,False,36.762566328048706
17,v,m,-,False,1.0435030460357666
17,v,m,m,True,0.7667393684387207
17,v,m,m,True,0.6809220314025879
17,z,-,-,True,0.7022995948791504
17,n,-,-,True,0.6449456214904785
17,n,m,m,True,1.2155098915100098
17,v,-,-,True,0.6709606647491455
17,s,-,-,True,0.5826942920684814
17,l,-,-,True,0.657761812210083
17,q,-,-,True,0.5407869815826416
17,w,-,-,True,0.6109614372253418
17,y,-,-,True,0.6071293354034424
17,y,m,m,True,0.8184752464294434
18,y,-,-,True,0.6090502738952637
18,s,-,-,True,1.0069637298583984
18,r,-,-,True,0.5547142028808594
18,d,-,-,True,0.7489974498748779
18,d,m,m,True,0.7629795074462891
18,g,-,-,True,0.5274221897125244
18,d,-,m,False,0.5282769203186035
18,b,-,-,True,0.5107607841491699
18,f,-,-,True,0.5128355026245117
18,f,m,m,True,0.9862446784973145
18,f,m,m,True,0.6203169822692871
18,p,-,-,True,0.658583402633667
18,p,m,m,True,0.7521190643310547
18,p,m,m,True,0.6395254135131836
18,g,-,-,True,0.52345871925354
18,x,-,-,True,0.7040016651153564
18,s,-,-,True,0.7551155090332031
18,p,-,m,False,0.5271668434143066
18,y,-,-,True,0.5308833122253418
18,y,m,m,True,1.1743202209472656
18,v,-,-,True,0.6260635852813721
18,v,m,m,True,0.65437912940979
18,f,-,-,True,1.0462455749511719
18,f,m,m,True,0.5539906024932861
19,f,-,-,True,0.9962341785430908
19,x,-,-,True,0.5808570384979248
19,x,m,m,True,0.6914401054382324
19,l,-,-,True,0.4539322853088379
19,l,m,m,True,0.4861912727355957
19,s,-,-,True,0.9613924026489258
19,r,-,-,True,0.9729337692260742
19,h,-,-,True,0.7455947399139404
19,h,m,m,True,0.5784628391265869
19,w,-,-,True,0.6275129318237305
19,w,m,m,True,0.7146573066711426
19,s,-,-,True,0.5264878273010254
19,s,m,m,True,0.5111899375915527
19,s,m,-,False,0.6899862289428711
19,p,-,-,True,0.7674241065979004
19,q,-,-,True,0.4914414882659912
19,g,-,-,True,0.8742210865020752
19,x,-,-,True,0.5759119987487793
19,p,-,-,True,0.4800243377685547
19,p,m,m,True,0.44255733489990234
19,g,-,-,True,0.9702959060668945
19,g,m,-,False,0.5968163013458252
19,q,-,-,True,0.6190385818481445
19,w,-,-,True,0.4508702754974365
20,h,-,-,True,1.3445706367492676
20,h,m,m,True,0.49621105194091797
20,h,m,-,False,0.5822622776031494
20,h,m,m,True,0.4916660785675049
20,g,-,-,True,0.5429468154907227
20,v,-,-,True,0.5648126602172852
20,c,-,-,True,0.491685152053833
20,w,-,-,True,0.5044076442718506
20,w,m,m,True,0.6987748146057129
20,w,m,m,True,0.5025680065155029
20,q,-,-,True,0.7652873992919922
20,s,-,-,True,0.43012189865112305
20,r,-,-,True,0.5608859062194824
20,r,m,m,True,0.4943382740020752
20,z,-,-,True,0.5888688564300537
20,b,-,-,True,0.6532449722290039
20,h,-,-,True,0.53792405128479
20,g,-,-,True,0.5203683376312256
20,v,-,-,True,0.5736639499664307
20,v,m,m,True,1.469815731048584
20,v,m,m,True,1.0092110633850098
20,x,-,-,True,0.4728374481201172
20,k,-,-,True,0.6083998680114746
20,x,-,-,True,0.7614626884460449
21,j,-,-,True,0.7424156665802002
21,n,-,-,True,0.46431684494018555
21,c,-,-,True,0.5782873630523682
21,z,-,-,True,0.48576998710632324
21,z,m,m,True,0.9929904937744141
21,z,m,m,True,0.46574878692626953
21,z,m,m,True,0.5194263458251953
21,d,-,-,True,0.9840879440307617
21,z,-,-,True,0.5473809242248535
21,t,-,-,True,0.5760252475738525
21,b,-,-,True,0.5367963314056396
21,l,-,-,True,0.5687205791473389
21,x,-,-,True,0.5010838508605957
21,h,-,-,True,1.4705371856689453
21,v,-,-,True,1.443425178527832
21,v,m,m,True,0.566856861114502
21,r,-,-,True,0.5664107799530029
21,j,-,-,True,0.7367959022521973
21,j,m,m,True,0.5665674209594727
21,q,-,-,True,1.0659739971160889
21,p,-,-,True,0.4729318618774414
21,p,m,m,True,1.5066208839416504
21,p,m,m,True,0.5228519439697266
21,p,m,m,True,0.6092624664306641
22,x,-,-,True,0.8849432468414307
22,c,-,-,True,0.4733893871307373
22,w,-,-,True,0.3960726261138916
22,w,m,m,True,0.458831787109375
22,n,-,-,True,0.4745311737060547
22,n,m,m,True,0.4568002223968506
22,c,-,-,True,0.5659639835357666
22,c,m,m,True,0.617809534072876
22,c,m,m,True,0.5648748874664307
22,z,-,-,True,0.4907419681549072
22,z,m,m,True,0.9745922088623047
22,k,-,-,True,0.7300171852111816
22,q,-,-,True,1.0464189052581787
22,y,-,-,True,0.5953059196472168
22,g,-,-,True,0.48601198196411133
22,s,-,-,True,0.5498967170715332
22,x,-,-,True,0.4908597469329834
22,y,-,-,True,1.4709186553955078
22,y,m,m,True,0.5008039474487305
22,y,m,m,True,0.5269677639007568
22,t,-,-,True,0.4870600700378418
22,j,-,-,True,1.1071417331695557
22,d,-,-,True,0.5766794681549072
22,d,m,m,True,0.49910497665405273
23,d,-,-,True,0.6211893558502197
23,d,m,m,True,0.7164227962493896
23,t,-,-,True,0.4522130489349365
23,x,-,-,True,0.4914250373840332
23,x,m,m,True,0.572807788848877
23,n,-,-,True,0.6814060211181641
23,n,m,m,True,0.5938739776611328
23,r,-,-,True,1.0248768329620361
23,p,-,-,True,0.49199414253234863
23,p,m,m,True,0.5645623207092285
23,p,m,m,True,0.6905803680419922
23,p,m,m,True,0.5838353633880615
23,p,m,m,True,0.9265642166137695
23,f,-,-,True,0.8907570838928223
23,k,-,-,True,0.5664527416229248
23,h,-,-,True,1.4603686332702637
23,f,-,-,True,0.48535799980163574
23,q,-,-,True,0.5186545848846436
23,r,-,-,True,0.5322866439819336
23,k,-,-,True,0.4750795364379883
23,s,-,-,True,0.5755448341369629
23,r,-,m,False,0.49694204330444336
23,y,-,-,True,0.6325781345367432
23,y,m,m,True,0.5926408767700195
24,r,-,-,True,0.9609470367431641
24,c,-,-,True,0.4912221431732178
24,v,-,-,True,0.4720602035522461
24,b,-,-,True,0.4744224548339844
24,b,m,m,True,0.5105302333831787
24,b,m,m,True,0.6936171054840088
24,b,m,m,True,0.4876434803009033
24,l,-,-,True,0.423844575881958
24,l,m,m,True,0.7133457660675049
24,n,-,-,True,0.5862371921539307
24,h,-,-,True,0.5732991695404053
24,p,-,-,True,0.908015251159668
24,b,-,m,False,0.5735259056091309
24,b,m,m,True,0.5479931831359863
24,b,m,m,True,0.5954360961914062
24,p,-,-,True,0.5632848739624023
24,y,-,-,True,0.46700310707092285
24,d,-,-,True,0.42277956008911133
24,k,-,-,True,0.41731953620910645
24,k,m,m,True,0.6510686874389648
24,q,-,-,True,0.5705363750457764
24,q,m,m,True,0.5827994346618652
24,v,-,-,True,1.498244047164917
24,b,-,m,False,0.5814504623413086
25,f,-,-,True,0.9336204528808594
25,g,-,-,True,0.45499277114868164
25,v,-,-,True,0.4966011047363281
25,z,-,-,True,0.47492241859436035
25,b,-,-,True,0.4573938846588135
25,x,-,-,True,0.5451252460479736
25,x,m,m,True,1.0090577602386475
25,h,-,-,True,0.47808313369750977
25,k,-,-,True,0.505195140838623
25,g,-,-,True,0.4739859104156494
25,g,m,m,True,0.5176353454589844
25,g,m,m,True,0.5970463752746582
25,g,m,m,True,0.49008655548095703
25,g,m,m,True,0.572152853012085
25,g,m,m,True,0.5715184211730957
25,n,-,-,True,0.5595378875732422
25,d,-,-,True,0.5739808082580566
25,r,-,-,True,0.5993669033050537
25,v,-,-,True,0.5981500148773193
25,w,-,-,True,0.5644302368164062
25,w,m,m,True,0.627295970916748
25,j,-,-,True,0.7260105609893799
25,j,m,m,True,0.6492245197296143
25,z,-,-,True,1.6528217792510986
26,y,-,-,True,1.1873981952667236
26,t,-,-,True,0.5371947288513184
26,t,m,m,True,0.9665696620941162
26,r,-,-,True,0.4886496067047119
26,r,m,m,True,0.5299756526947021
26,r,m,m,True,0.5289394855499268
26,y,-,-,True,0.4321460723876953
26,p,-,-,True,0.4434852600097656
26,z,-,-,True,0.42649412155151367
26,n,-,-,True,0.5823187828063965
26,d,-,-,True,0.500540018081665
26,d,m,m,True,0.6014196872711182
26,d,m,m,True,0.5030827522277832
26,s,-,-,True,0.4944751262664795
26,r,-,-,True,0.4699084758758545
26,h,-,-,True,0.4803290367126465
26,h,m,m,True,0.421999454498291
26,x,-,-,True,0.5623278617858887
26,n,-,-,True,0.49861979484558105
26,l,-,-,True,0.5635693073272705
26,d,-,-,True,0.8844480514526367
26,w,-,-,True,0.6893026828765869
26,w,m,m,True,0.4534912109375
26,w,m,m,True,0.6059801578521729
27,x,-,-,True,0.9975883960723877
27,x,m,m,True,0.6976687908172607
27,c,-,-,True,0.7063207626342773
27,n,-,-,True,0.4558086395263672
27,t,-,-,True,0.46518898010253906
27,y,-,-,True,0.9749672412872314
27,l,-,-,True,0.5494298934936523
27,l,m,m,True,0.46451830863952637
27,h,-,-,True,0.46691107749938965
27,h,m,m,True,0.4949181079864502
27,x,-,-,True,0.5688502788543701
27,x,m,m,True,0.604116678237915
27,x,m,m,True,0.47450804710388184
27,p,-,-,True,0.5858690738677979
27,p,m,m,True,0.5883455276489258
27,p,m,m,True,0.47156190872192383
27,x,-,-,True,0.5709226131439209
27,g,-,-,True,0.650557279586792
27,w,-,-,True,0.5619535446166992
27,n,-,-,True,0.48377060890197754
27,d,-,-,True,0.4978046417236328
27,z,-,-,True,0.632596492767334
27,z,m,m,True,0.5262002944946289
27,k,-,-,True,0.5671353340148926
28,r,-,-,True,1.0643348693847656
28,l,-,-,True,0.47826242446899414
28,l,m,m,True,1.1224477291107178
28,y,-,-,True,0.552056074142456
28,d,-,-,True,0.5095951557159424
28,c,-,-,True,0.6383726596832275
28,c,m,m,True,1.0514562129974365
28,c,m,m,True,0.48669886589050293
28,c,m,m,True,0.5305304527282715
28,v,-,-,True,1.0313382148742676
28,d,-,-,True,0.5238349437713623
28,c,-,-,True,0.6232621669769287
28,c,m,m,True,0.6504836082458496
28,j,-,-,True,0.49819254875183105
28,y,-,-,True,0.6606569290161133
28,y,m,m,True,0.5228235721588135
28,l,-,-,True,0.6484925746917725
28,x,-,-,True,0.5446724891662598
28,x,m,m,True,0.5942211151123047
28,k,-,-,True,0.575345516204834
28,v,-,-,True,0.5338282585144043
28,b,-,-,True,0.7346115112304688
28,f,-,-,True,0.6953918933868408
28,f,m,m,True,1.0618860721588135
29,j,-,-,True,1.0254766941070557
29,j,m,-,False,0.9933288097381592
29,z,-,-,True,0.4792361259460449
29,z,m,m,True,0.6352488994598389
29,p,-,-,True,0.5047173500061035
29,w,-,-,True,0.6027882099151611
29,b,-,-,True,0.49419212341308594
29,n,-,-,True,0.5012123584747314
29,b,-,-,True,0.7674853801727295
29,b,m,m,True,0.7327497005462646
29,d,-,-,True,0.6025426387786865
29,d,m,m,True,0.49661922454833984
29,h,-,-,True,0.9542577266693115
29,q,-,-,True,1.0001556873321533
29,k,-,-,True,0.6353673934936523
29,k,m,m,True,0.5022132396697998
29,w,-,-,True,0.5281963348388672
29,w,m,m,True,0.6301698684692383
29,l,-,-,True,0.5184516906738281
29,k,-,m,False,0.4878876209259033
29,p,-,-,True,0.5411672592163086
29,v,-,-,True,0.7697770595550537
29,v,m,m,True,0.5283451080322266
29,v,m,-,False,0.5265157222747803
30,j,-,-,True,1.3249657154083252
30,j,m,-,False,0.6000270843505859
30,b,-,-,True,1.5282096862792969
30,k,-,-,True,0.5698714256286621
30,l,-,-,True,0.6002848148345947
30,f,-,-,True,0.4803581237792969
30,f,m,m,True,0.47888803482055664
30,y,-,-,True,0.6025576591491699
30,b,-,-,True,0.4607083797454834
30,b,m,m,True,0.4660787582397461
30,b,m,m,True,0.4952824115753174
30,x,-,-,True,0.6193108558654785
30,q,-,-,True,0.5596849918365479
30,q,m,m,True,1.0547351837158203
30,q,m,m,True,0.4958183765411377
30,s,-,-,True,0.9293928146362305
30,t,-,-,True,0.587125301361084
30,t,m,m,True,0.5029315948486328
30,t,m,m,True,0.4624462127685547
30,r,-,-,True,0.6068994998931885
30,n,-,-,True,0.6590332984924316
30,g,-,-,True,0.5126228332519531
30,k,-,-,True,0.7496776580810547
30,b,-,-,True,0.5304014682769775
31,p,-,-,True,1.214792251586914
31,l,-,-,True,0.7212419509887695
31,y,-,-,True,0.5765466690063477
31,y,m,m,True,0.5248818397521973
31,y,m,m,True,0.48386597633361816
31,l,-,-,True,0.586132287979126
31,h,-,-,True,0.48622751235961914
31,k,-,-,True,0.8329675197601318
31,k,m,m,True,0.4720034599304199
31,k,m,m,True,0.5768885612487793
31,k,m,m,True,0.5158107280731201
31,w,-,-,True,0.501838207244873
31,w,m,m,True,0.4628024101257324
31,w,m,m,True,0.4948301315307617
31,q,-,-,True,0.621100902557373
31,x,-,-,True,0.9467759132385254
31,z,-,-,True,0.5049076080322266
31,s,-,-,True,0.5049314498901367
31,n,-,-,True,0.5988562107086182
31,j,-,-,True,0.5087652206420898
31,j,m,m,True,0.7931258678436279
31,r,-,-,True,0.6183319091796875
31,s,-,-,True,1.0564296245574951
31,b,-,-,True,0.47493433952331543
32,d,-,-,True,1.1234583854675293
32,l,-,-,True,0.45743441581726074
32,l,m,m,True,1.0319278240203857
32,q,-,-,True,0.41686105728149414
32,q,m,m,True,0.9211571216583252
32,q,m,m,True,0.581995964050293
32,p,-,-,True,0.4568901062011719
32,l,-,-,True,0.8281304836273193
32,t,-,-,True,0.48422980308532715
32,f,-,-,True,0.4820365905761719
32,k,-,-,True,0.5788724422454834
32,k,m,m,True,0.6001834869384766
32,p,-,-,True,0.5787055492401123
32,c,-,-,True,0.5061120986938477
32,s,-,-,True,0.5785198211669922
32,b,-,-,True,0.540966272354126
32,l,-,m,False,0.5698637962341309
32,k,-,-,True,0.544809103012085
32,k,m,m,True,0.47809362411499023
32,w,-,-,True,0.7479920387268066
32,w,m,m,True,0.5823156833648682
32,w,m,-,False,0.5231690406799316
32,w,m,m,True,0.7251546382904053
32,p,-,-,True,0.5907373428344727
33,c,-,-,True,0.9779841899871826
33,c,-,m,False,0.44052815437316895
33,c,m,-,False,0.539210319519043
33,z,-,-,True,0.4519345760345459
33,n,-,-,True,0.4366118907928467
33,n,m,m,True,0.4137887954711914
33,s,-,-,True,0.5471358299255371
33,s,m,m,True,1.5158753395080566
33,r,-,-,True,0.6154978275299072
33,f,-,-,True,0.5385620594024658
33,y,-,-,True,0.9625740051269531
33,y,m,m,True,0.4807746410369873
33,p,-,-,True,0.45089244842529297
33,f,-,-,True,0.4882073402404785
33,y,-,-,True,0.48563194274902344
33,y,m,m,True,0.5566246509552002
33,y,m,m,True,0.9503231048583984
33,x,-,-,True,0.4969749450683594
33,x,m,-,False,0.5106701850891113
33,h,-,-,True,0.640362024307251
33,h,m,m,True,0.42720746994018555
33,s,-,-,True,0.5970818996429443
33,n,-,-,True,0.952045202255249
33,j,-,-,True,0.5948822498321533
34,g,-,-,True,0.9996633529663086
34,z,-,-,True,0.47556042671203613
34,z,m,m,True,0.5074474811553955
34,z,m,m,True,0.9398818016052246
34,f,-,-,True,0.45812201499938965
34,n,-,-,True,0.4579925537109375
34,x,-,-,True,0.5605831146240234
34,x,m,m,True,0.5638608932495117
34,s,-,-,True,0.6593389511108398
34,z,-,-,True,0.5213308334350586
34,z,m,m,True,0.5657362937927246
34,z,m,m,True,0.9313712120056152
34,b,-,-,True,0.4689040184020996
34,n,-,-,True,0.488816499710083
34,y,-,-,True,0.4827542304992676
34,y,m,m,True,0.4627268314361572
34,p,-,-,True,0.5780324935913086
34,p,m,m,True,0.5005450248718262
34,k,-,-,True,0.5171153545379639
34,k,m,m,True,0.5737311840057373
34,c,-,-,True,0.597710371017456
34,s,-,-,True,0.5860321521759033
34,y,-,-,True,0.7509582042694092
34,q,-,-,True,0.5861377716064453
35,w,-,-,True,0.47519922256469727
35,w,m,m,True,0.7073111534118652
35,k,-,-,True,1.8792033195495605
35,k,m,m,True,0.44902873039245605
35,l,-,-,True,0.610098123550415
35,h,-,-,True,1.0254874229431152
35,h,m,m,True,0.5759093761444092
35,h,m,m,True,1.3603243827819824
35,x,-,-,True,0.7988612651824951
35,n,-,-,True,0.9684238433837891
35,y,-,-,True,0.4678823947906494
35,r,-,-,True,0.4355504512786865
35,r,m,m,True,0.5257742404937744
35,l,-,-,True,0.570734977722168
35,l,m,m,True,0.48932695388793945
35,x,-,-,True,0.5734872817993164
35,x,m,m,True,0.5138552188873291
35,j,-,-,True,1.493161678314209
35,t,-,-,True,1.1521563529968262
35,v,-,-,True,0.44217395782470703
35,p,-,-,True,0.5429642200469971
35,p,m,m,True,0.50339674949646
35,r,-,-,True,0.445112943649292
35,x,-,-,True,0.5079531669616699
36,r,-,-,True,0.58062744140625
36,r,m,m,True,0.40369367599487305
36,r,m,m,True,0.45183753967285156
36,z,-,-,True,0.5646626949310303
36,r,-,-,True,0.551917552947998
36,d,-,-,True,0.4627530574798584
36,z,-,-,True,0.6510701179504395
36,q,-,-,True,1.2425923347473145
36,q,m,m,True,0.7160534858703613
36,q,m,-,False,1.0519158840179443
36,z,-,-,True,0.46105241775512695
36,p,-,-,True,0.6157710552215576
36,j,-,-,True,0.5722310543060303
36,x,-,-,True,0.5961084365844727
36,x,m,m,True,0.586313009262085
36,c,-,-,True,0.5569765567779541
36,c,m,m,True,0.48963284492492676
36,n,-,-,True,0.5617785453796387
36,x,-,-,True,1.0823047161102295
36,x,m,m,True,0.7341275215148926
36,x,m,m,True,0.49398231506347656
36,q,-,-,True,0.4746532440185547
36,c,-,-,True,1.319227933883667
36,g,-,-,True,0.9759602546691895
37,r,-,-,True,1.0422089099884033
37,k,-,-,True,0.5465126037597656
37,q,-,-,True,0.48634934425354004
37,q,m,m,True,0.4768354892730713
37,j,-,-,True,0.49996232986450195
37,y,-,-,True,0.47337818145751953
37,z,-,-,True,0.573199987411499
37,v,-,-,True,0.5685076713562012
37,v,m,m,True,0.6164934635162354
37,k,-,-,True,0.883399486541748
37,h,-,-,True,0.5188553333282471
37,z,-,-,True,0.5390012264251709
37,z,m,m,True,0.8346750736236572
37,g,-,-,True,0.5499405860900879
37,g,m,m,True,1.0040614604949951
37,s,-,-,True,1.4895250797271729
37,s,m,m,True,0.6632387638092041
37,q,-,m,False,0.6108057498931885
37,r,-,-,True,0.619450569152832
37,r,m,m,True,1.0964701175689697
37,r,m,m,True,0.4885265827178955
37,l,-,-,True,0.6480827331542969
37,h,-,-,True,0.4930131435394287
37,h,m,m,True,0.6751351356506348
38,p,-,-,True,1.1100807189941406
38,s,-,-,True,0.7440836429595947
38,n,-,-,True,0.4703953266143799
38,t,-,-,True,0.5856642723083496
38,q,-,-,True,0.590787410736084
38,q,m,m,True,0.5977377891540527
38,q,m,m,True,0.5977272987365723
38,q,m,m,True,0.5983157157897949
38,r,-,-,True,0.48368310928344727
38,j,-,-,True,0.5395553112030029
38,n,-,-,True,0.5672476291656494
38,d,-,-,True,0.49648523330688477
38,d,m,m,True,0.494701623916626
38,d,m,m,True,0.6378402709960938
38,c,-,-,True,0.5762035846710205
38,s,-,-,True,0.5272045135498047
38,y,-,-,True,0.6138486862182617
38,z,-,-,True,0.9468724727630615
38,v,-,-,True,0.49591898918151855
38,k,-,-,True,0.6677672863006592
38,k,m,m,True,0.5172185897827148
38,k,m,m,True,0.5315523147583008
38,c,-,-,True,0.5154755115509033
38,c,m,m,True,0.5359971523284912
39,d,-,-,True,0.48792338371276855
39,z,-,-,True,0.566361665725708
39,b,-,-,True,0.4905388355255127
39,x,-,-,True,0.5207409858703613
39,x,m,m,True,0.49701833724975586
39,f,-,-,True,0.7036681175231934
39,f,m,m,True,0.6814656257629395
39,x,-,-,True,0.5160832405090332
39,n,-,-,True,0.5415968894958496
39,s,-,-,True,0.7816004753112793
39,s,m,m,True,0.48621034622192383
39,y,-,-,True,0.5081000328063965
39,k,-,-,True,0.4936351776123047
39,b,-,-,True,0.951775074005127
39,z,-,-,True,0.589200496673584
39,z,m,m,True,0.6640417575836182
39,d,-,-,True,0.6114287376403809
39,d,m,m,True,0.6054613590240479
39,d,m,m,True,0.514176607131958
39,z,-,-,True,0.46078968048095703
39,z,m,m,True,0.6344754695892334
39,z,m,-,False,0.46265149116516113
39,j,-,-,True,0.6904253959655762
39,c,-,-,True,0.46382904052734375
40,t,-,-,True,1.3988807201385498
40,v,-,-,True,0.5603883266448975
40,p,-,-,True,0.4696784019470215
40,z,-,-,True,1.356628656387329
40,s,-,-,True,0.4792001247406006
40,s,m,m,True,0.9652268886566162
40,c,-,-,True,1.0336081981658936
40,c,m,m,True,0.4888439178466797
40,c,m,m,True,0.4793570041656494
40,r,-,-,True,0.569263219833374
40,y,-,-,True,0.4714365005493164
40,y,m,m,True,0.4151885509490967
40,b,-,-,True,0.5543320178985596
40,b,m,m,True,0.5892181396484375
40,b,m,-,False,0.6967296600341797
40,y,-,-,True,0.5734593868255615
40,v,-,-,True,0.5682196617126465
40,g,-,-,True,0.5743601322174072
40,w,-,-,True,0.5988366603851318
40,g,-,-,True,0.5713315010070801
40,r,-,-,True,0.5968647003173828
40,k,-,-,True,0.48087167739868164
40,k,m,m,True,0.6015884876251221
40,k,m,-,False,0.42828893661499023
41,z,-,-,True,0.5002026557922363
41,t,-,-,True,0.944242000579834
41,t,m,m,True,0.5459821224212646
41,z,-,-,True,0.9911115169525146
41,d,-,-,True,0.9484553337097168
41,p,-,-,True,0.5354101657867432
41,p,m,m,True,0.43021178245544434
41,z,-,-,True,1.003854751586914
41,k,-,-,True,0.4895005226135254
41,j,-,-,True,0.584406852722168
41,l,-,-,True,0.41390132904052734
41,l,m,m,True,0.4515345096588135
41,l,m,-,False,0.9102025032043457
41,l,m,m,True,0.4781179428100586
41,y,-,-,True,0.5403628349304199
41,y,m,m,True,0.5791871547698975
41,y,m,-,False,0.4870798587799072
41,d,-,-,True,0.5740952491760254
41,b,-,-,True,0.4572162628173828
41,q,-,-,True,0.49274206161499023
41,z,-,-,True,0.5796172618865967
41,z,m,m,True,0.5903382301330566
41,n,-,-,True,0.5843513011932373
41,j,-,-,True,0.5929107666015625
42,x,-,-,True,0.44516491889953613
42,v,-,-,True,0.9690685272216797
42,h,-,-,True,0.4542720317840576
42,h,m,m,True,0.6527042388916016
42,h,m,m,True,0.43108415603637695
42,h,m,m,True,0.4716980457305908
42,f,-,-,True,0.44150376319885254
42,d,-,-,True,0.5632984638214111
42,q,-,-,True,0.5823819637298584
42,q,m,m,True,0.5270557403564453
42,s,-,-,True,0.4914689064025879
42,k,-,-,True,0.5834872722625732
42,k,m,m,True,0.5054590702056885
42,k,m,m,True,0.5949563980102539
42,s,-,-,True,0.5621035099029541
42,s,m,m,True,0.614396333694458
42,y,-,-,True,0.9500768184661865
42,y,m,m,True,0.5769119262695312
42,f,-,-,True,0.4844505786895752
42,w,-,-,True,0.49167943000793457
42,z,-,-,True,0.5617210865020752
42,v,-,-,True,0.5966165065765381
42,g,-,-,True,0.7168624401092529
42,t,-,-,True,0.818981409072876
43,s,-,-,True,0.8371195793151855
43,h,-,-,True,0.5374042987823486
43,h,m,m,True,0.47736144065856934
43,j,-,-,True,0.5588088035583496
43,j,m,m,True,1.4974613189697266
43,t,-,-,True,0.47341251373291016
43,s,-,-,True,0.4701721668243408
43,k,-,-,True,0.9520955085754395
43,v,-,-,True,0.439594030380249
43,h,-,-,True,0.5898706912994385
43,h,m,m,True,0.9763715267181396
43,h,m,m,True,0.47477078437805176
43,h,m,m,True,0.5866565704345703
43,n,-,-,True,0.5845439434051514
43,f,-,-,True,0.4713113307952881
43,b,-,-,True,0.5850090980529785
43,b,m,-,False,0.4384284019470215
43,b,m,m,True,0.5607385635375977
43,w,-,-,True,0.6994788646697998
43,w,m,m,True,0.42786169052124023
43,q,-,-,True,0.42682909965515137
43,w,-,-,True,0.7355680465698242
43,n,-,-,True,0.9150848388671875
43,s,-,-,True,0.49080729484558105
44,z,-,-,True,1.0489437580108643
44,y,-,-,True,0.6047782897949219
44,d,-,-,True,0.4509568214416504
44,d,m,m,True,1.501168966293335
44,w,-,-,True,0.61228346824646
44,w,m,m,True,0.5985586643218994
44,l,-,-,True,0.5302248001098633
44,t,-,-,True,0.5961160659790039
44,t,m,m,True,0.5135161876678467
44,v,-,-,True,0.5927214622497559
44,n,-,-,True,0.5546841621398926
44,n,m,m,True,0.5116531848907471
44,k,-,-,True,0.5417780876159668
44,v,-,-,True,0.5159549713134766
44,v,m,m,True,0.45916199684143066
44,v,m,m,True,0.5343999862670898
44,v,m,m,True,0.5067641735076904
44,k,-,-,True,0.5478518009185791
44,z,-,-,True,0.5235631465911865
44,v,-,-,True,0.5484743118286133
44,n,-,-,True,0.6143617630004883
44,x,-,-,True,0.5176501274108887
44,x,m,-,False,1.0813376903533936
44,j,-,-,True,0.7334296703338623
45,f,-,-,True,1.5092365741729736
45,b,-,-,True,0.43796610832214355
45,b,m,m,True,0.5248734951019287
45,q,-,-,True,0.9849088191986084
45,v,-,-,True,0.4282410144805908
45,j,-,-,True,0.5683975219726562
45,j,m,m,True,0.9807119369506836
45,r,-,-,True,0.5274715423583984
45,d,-,-,True,0.4713609218597412
45,b,-,-,True,0.6537187099456787
45,k,-,-,True,0.5763521194458008
45,h,-,-,True,0.4819767475128174
45,x,-,-,True,0.5924792289733887
45,x,m,m,True,0.9273715019226074
45,x,m,m,True,0.5812625885009766
45,x,m,m,True,0.6754035949707031
45,v,-,-,True,0.5720391273498535
45,x,-,-,True,1.0021495819091797
45,x,m,m,True,0.5827727317810059
45,x,m,m,True,1.5244979858398438
45,b,-,-,True,0.5742809772491455
45,s,-,-,True,0.5977473258972168
45,s,m,m,True,0.5080208778381348
45,n,-,-,True,0.48073911666870117
46,z,-,-,True,0.4499197006225586
46,z,-,m,False,0.46663546562194824
46,z,m,-,False,0.5744993686676025
46,z,m,m,True,0.8855564594268799
46,z,m,m,True,1.4241421222686768
46,w,-,-,True,0.4658215045928955
46,v,-,-,True,0.5348207950592041
46,r,-,-,True,0.47138190269470215
46,r,m,m,True,0.49468493461608887
46,k,-,-,True,0.4244558811187744
46,t,-,-,True,0.48325324058532715
46,d,-,-,True,0.5799083709716797
46,g,-,-,True,0.47191929817199707
46,g,m,m,True,0.5200843811035156
46,j,-,-,True,0.6251366138458252
46,c,-,-,True,1.1346385478973389
46,c,m,m,True,0.7028672695159912
46,c,m,m,True,1.1163206100463867
46,n,-,-,True,0.4947478771209717
46,n,m,m,True,0.6128597259521484
46,q,-,-,True,1.175124168395996
46,c,-,-,True,0.8202083110809326
46,b,-,-,True,0.4527273178100586
46,j,-,-,True,0.5218055248260498
47,l,-,-,True,0.9349062442779541
47,l,m,m,True,0.4408125877380371
47,v,-,-,True,0.482257604598999
47,z,-,-,True,0.5004191398620605
47,d,-,-,True,0.727245569229126
47,t,-,-,True,0.5608875751495361
47,f,-,-,True,0.4601118564605713
47,f,m,m,True,0.6796796321868896
47,c,-,-,True,0.9057228565216064
47,b,-,-,True,0.5764963626861572
47,t,-,-,True,0.42560648918151855
47,b,-,-,True,1.0435261726379395
47,w,-,-,True,0.5523333549499512
47,g,-,-,True,0.47223997116088867
47,g,m,m,True,1.0543467998504639
47,j,-,-,True,0.512362003326416
47,t,-,-,True,1.0726914405822754
47,z,-,-,True,0.5839145183563232
47,j,-,-,True,1.0714683532714844
47,j,m,m,True,0.5689747333526611
47,j,m,m,True,0.6466584205627441
47,j,m,m,True,0.9064762592315674
47,j,m,m,True,0.5790584087371826
47,j,m,m,True,0.5842070579528809
48,z,-,-,True,0.468752384185791
48,n,-,-,True,0.43442249298095703
48,l,-,-,True,0.6029496192932129
48,z,-,-,True,0.4003641605377197
48,h,-,-,True,0.5577640533447266
48,h,m,m,True,0.40709424018859863
48,f,-,-,True,0.47236061096191406
48,f,m,m,True,0.9961063861846924
48,j,-,-,True,0.5664012432098389
48,z,-,-,True,0.5557522773742676
48,l,-,-,True,0.9539766311645508
48,l,m,m,True,0.6524858474731445
48,h,-,-,True,0.5008511543273926
48,h,m,m,True,0.4755697250366211
48,y,-,-,True,0.5622210502624512
48,y,m,m,True,0.5935244560241699
48,y,m,m,True,0.5484714508056641
48,s,-,-,True,0.5642504692077637
48,n,-,-,True,0.529594898223877
48,n,m,m,True,0.5395519733428955
48,n,m,m,True,0.50693678855896
48,p,-,-,True,0.43318772315979004
48,q,-,-,True,0.5896139144897461
48,k,-,-,True,0.5200948715209961
49,h,-,-,True,1.1616291999816895
49,n,-,-,True,0.48587632179260254
49,n,m,m,True,0.7076501846313477
49,n,m,-,False,0.5014994144439697
49,f,-,-,True,0.48301172256469727
49,f,m,m,True,0.5600464344024658
49,x,-,-,True,1.034726619720459
49,q,-,-,True,1.5484209060668945
49,q,m,m,True,0.5893139839172363
49,w,-,-,True,0.5054903030395508
49,w,m,m,True,0.6054792404174805
49,t,-,-,True,0.7603230476379395
49,t,m,m,True,0.695420503616333
49,j,-,-,True,0.7666833400726318
49,k,-,-,True,0.5661993026733398
49,k,m,m,True,0.7215759754180908
49,g,-,-,True,1.0296294689178467
49,v,-,-,True,1.6017720699310303
49,v,m,m,True,0.616166353225708
49,l,-,-,True,0.4841301441192627
49,f,-,-,True,0.5730078220367432
49,c,-,-,True,0.6128585338592529
49,p,-,-,True,0.6748244762420654
49,l,-,-,True,0.6047015190124512
