block,trial,target,response,correct,rt
0,l,-,-,True,1.620206356048584
0,f,-,-,True,0.6121292114257812
0,n,-,-,True,0.6311824321746826
0,y,-,-,True,0.6748745441436768
0,n,m,m,True,0.5756185054779053
0,z,-,-,True,0.5537042617797852
0,z,-,m,False,0.5058505535125732
0,w,-,-,True,0.6170895099639893
0,x,-,-,True,0.9498541355133057
0,n,-,-,True,0.4762897491455078
0,y,-,-,True,0.7966063022613525
0,t,-,-,True,0.5680222511291504
0,y,m,-,False,0.9837164878845215
0,t,m,m,True,1.009101152420044
0,v,-,-,True,0.8129792213439941
0,v,-,m,False,0.6182882785797119
0,v,m,-,False,0.523655891418457
0,v,m,m,True,0.5259354114532471
0,c,-,-,True,0.6267731189727783
0,n,-,m,False,0.7601189613342285
0,j,-,-,True,0.4418621063232422
0,n,m,-,False,0.510749101638794
0,j,m,-,False,0.7559130191802979
0,n,m,m,True,0.6641695499420166
1,s,-,-,True,0.569087028503418
1,r,-,-,True,0.4245731830596924
1,g,-,-,True,0.48096227645874023
1,r,m,-,False,0.4867725372314453
1,w,-,-,True,0.5782301425933838
1,r,m,m,True,0.5945010185241699
1,j,-,-,True,0.6178476810455322
1,w,-,-,True,0.482088565826416
1,d,-,-,True,0.5845623016357422
1,f,-,-,True,0.6662502288818359
1,j,-,-,True,0.5421910285949707
1,f,m,-,False,1.079969882965088
1,j,m,-,False,0.5772247314453125
1,f,m,-,False,0.49691271781921387
1,q,-,-,True,0.582714319229126
1,g,-,-,True,0.5151956081390381
1,q,m,-,False,0.4789607524871826
1,z,-,-,True,0.6124377250671387
1,q,m,m,True,0.489609956741333
1,v,-,-,True,0.5194833278656006
1,y,-,-,True,0.4905431270599365
1,f,-,-,True,0.4878072738647461
1,y,m,-,False,0.8314857482910156
1,q,-,m,False,0.6555993556976318
2,w,-,-,True,1.03619384765625
2,v,-,-,True,0.5273599624633789
2,j,-,-,True,0.7582933902740479
2,v,m,-,False,0.4544949531555176
2,j,m,-,False,0.4515807628631592
2,t,-,-,True,0.6732573509216309
2,j,m,m,True,0.45479297637939453
2,s,-,-,True,0.9774627685546875
2,w,-,-,True,0.5818240642547607
2,s,m,-,False,0.5398280620574951
2,k,-,-,True,0.7427654266357422
2,s,m,m,True,0.5843830108642578
2,k,m,-,False,0.5564582347869873
2,p,-,-,True,0.539109468460083
2,x,-,-,True,0.49441051483154297
2,p,m,-,False,1.4841973781585693
2,q,-,-,True,0.612778902053833
2,c,-,-,True,0.628608226776123
2,l,-,-,True,0.46933531761169434
2,w,-,-,True,0.6081984043121338
2,q,-,-,True,0.8409914970397949
2,c,-,-,True,0.9781591892242432
2,q,m,m,True,0.4593658447265625
2,l,-,-,True,0.5265755653381348
3,f,-,-,True,0.970527172088623
3,k,-,-,True,0.4572610855102539
3,r,-,-,True,0.9543962478637695
3,q,-,-,True,0.467571496963501
3,g,-,-,True,0.6053855419158936
3,x,-,-,True,0.4537231922149658
3,c,-,-,True,0.9328536987304688
3,x,m,-,False,0.4747648239135742
3,c,m,m,True,0.9829425811767578
3,j,-,-,True,0.485736608505249
3,c,m,-,False,0.5341241359710693
3,j,m,-,False,0.5413024425506592
3,r,-,-,True,0.6880362033843994
3,v,-,-,True,0.4512641429901123
3,b,-,-,True,0.5728590488433838
3,v,m,-,False,0.5855958461761475
3,b,m,m,True,1.4359862804412842
3,y,-,-,True,0.4588778018951416
3,g,-,-,True,0.5585272312164307
3,y,m,-,False,0.4876563549041748
3,r,-,-,True,0.7175734043121338
3,y,m,-,False,0.500281810760498
3,c,-,-,True,0.45882439613342285
3,n,-,-,True,0.48217177391052246
4,c,-,-,True,1.0348167419433594
4,p,-,-,True,0.6435689926147461
4,c,m,-,False,1.448267936706543
4,s,-,-,True,0.5150027275085449
4,y,-,-,True,0.6056482791900635
4,k,-,-,True,0.48024940490722656
4,g,-,-,True,0.44634366035461426
4,k,m,-,False,0.4636657238006592
4,g,m,m,True,0.624993085861206
4,k,m,-,False,0.48938751220703125
4,k,-,-,True,0.6999828815460205
4,y,-,-,True,0.4812047481536865
4,k,m,-,False,0.9876115322113037
4,y,m,-,False,0.5031101703643799
4,b,-,-,True,1.5254194736480713
4,q,-,-,True,0.6072657108306885
4,w,-,-,True,0.4519052505493164
4,n,-,-,True,0.5343635082244873
4,x,-,-,True,0.62528395652771
4,r,-,-,True,0.7663683891296387
4,x,m,-,False,0.6054036617279053
4,h,-,-,True,0.45983266830444336
4,t,-,-,True,0.5394554138183594
4,h,m,-,False,0.6100804805755615
5,w,-,-,True,1.260160207748413
5,z,-,-,True,0.446181058883667
5,w,m,-,False,0.7027239799499512
5,z,m,m,True,0.5708889961242676
5,j,-,-,True,0.46585845947265625
5,g,-,-,True,0.5595324039459229
5,w,-,-,True,0.5507450103759766
5,s,-,-,True,0.9220178127288818
5,h,-,-,True,0.9712705612182617
5,s,m,m,True,1.4538908004760742
5,n,-,-,True,0.5586721897125244
5,b,-,-,True,0.8960995674133301
5,c,-,-,True,0.6106305122375488
5,q,-,-,True,0.5589215755462646
5,c,m,-,False,0.5996012687683105
5,l,-,-,True,0.5291481018066406
5,f,-,-,True,0.9022901058197021
5,g,-,m,False,0.442903995513916
5,f,m,-,False,0.7311787605285645
5,k,-,-,True,0.5727903842926025
5,f,m,m,True,0.5385212898254395
5,k,m,-,False,0.5068542957305908
5,f,m,m,True,0.4940493106842041
5,n,-,-,True,1.014646053314209
6,j,-,-,True,1.482832908630371
6,b,-,-,True,1.0292210578918457
6,j,m,-,False,0.5052413940429688
6,r,-,-,True,1.015824794769287
6,t,-,-,True,0.6914846897125244
6,y,-,-,True,1.48602294921875
6,n,-,-,True,0.5385956764221191
6,y,m,-,False,0.7095777988433838
6,n,m,-,False,1.0315186977386475
6,s,-,-,True,0.5612645149230957
6,s,-,-,True,0.6307034492492676
6,h,-,-,True,0.7909398078918457
6,s,m,-,False,0.5058760643005371
6,b,-,m,False,0.5945494174957275
6,s,m,-,False,0.5896577835083008
6,t,-,-,True,0.5002264976501465
6,s,m,m,True,0.6609907150268555
6,c,-,-,True,0.523979663848877
6,r,-,-,True,0.6059746742248535
6,g,-,-,True,0.5442869663238525
6,g,-,m,False,0.627964973449707
6,s,-,-,True,0.5385744571685791
6,g,m,m,True,1.0778074264526367
6,s,m,-,False,0.581780195236206
7,y,-,-,True,1.10426664352417
7,q,-,-,True,0.5395007133483887
7,g,-,-,True,0.5015354156494141
7,r,-,-,True,0.49372005462646484
7,g,m,-,False,0.5060255527496338
7,s,-,-,True,0.5085117816925049
7,k,-,-,True,0.5114498138427734
7,s,m,m,True,1.071901559829712
7,k,m,-,False,0.5846695899963379
7,c,-,-,True,0.9924356937408447
7,k,m,-,False,0.7726430892944336
7,t,-,-,True,0.9677438735961914
7,b,-,-,True,0.5929036140441895
7,f,-,-,True,0.5198092460632324
7,w,-,-,True,0.5376067161560059
7,y,-,-,True,0.5204706192016602
7,w,m,m,True,0.48808765411376953
7,s,-,-,True,0.49698877334594727
7,w,m,-,False,0.5229940414428711
7,s,m,-,False,0.48407530784606934
7,c,-,-,True,1.4783258438110352
7,s,m,m,True,0.5430464744567871
7,q,-,-,True,0.8002910614013672
7,x,-,-,True,0.5073392391204834
8,w,-,-,True,0.8907647132873535
8,k,-,-,True,0.5768005847930908
8,t,-,-,True,0.8853888511657715
8,n,-,-,True,0.607302188873291
8,c,-,-,True,0.5182235240936279
8,f,-,-,True,0.5010075569152832
8,b,-,-,True,1.0593929290771484
8,p,-,-,True,0.6340205669403076
8,r,-,-,True,0.7668411731719971
8,w,-,-,True,0.5021572113037109
8,q,-,-,True,0.504326581954956
8,t,-,m,False,0.5820374488830566
8,q,m,-,False,0.502185583114624
8,t,m,m,True,0.5545170307159424
8,q,m,m,True,0.4761161804199219
8,t,m,m,True,0.49432921409606934
8,q,m,m,True,0.5904333591461182
8,t,m,m,True,0.6068453788757324
8,q,m,m,True,0.4768986701965332
8,t,m,m,True,0.6153461933135986
8,r,-,-,True,0.4915428161621094
8,p,-,-,True,0.5066804885864258
8,g,-,-,True,0.7273409366607666
8,f,-,-,True,0.6326098442077637
9,g,-,-,True,0.4780311584472656
9,z,-,-,True,0.47540926933288574
9,k,-,-,True,0.4863457679748535
9,l,-,-,True,0.9822025299072266
9,f,-,-,True,0.5627210140228271
9,l,m,m,True,13.463583946228027
9,n,-,-,True,0.615309476852417
9,r,-,-,True,0.6209814548492432
9,n,m,-,False,0.5702106952667236
9,g,-,m,False,0.701122522354126
9,g,-,-,True,0.530806303024292
9,g,m,m,True,1.1873843669891357
9,c,-,-,True,0.4962120056152344
9,z,-,-,True,0.5333409309387207
9,r,-,-,True,0.9062075614929199
9,z,m,-,False,0.5347282886505127
9,h,-,-,True,0.6323449611663818
9,z,m,-,False,0.6452789306640625
9,f,-,-,True,0.5584416389465332
9,z,m,-,False,0.6148006916046143
9,f,m,-,False,0.6469211578369141
9,z,m,-,False,1.2230408191680908
9,d,-,-,True,0.5388927459716797
9,k,-,-,True,1.1902778148651123
10,b,-,-,True,0.859363317489624
10,d,-,-,True,1.4122374057769775
10,b,m,-,False,0.48671817779541016
10,b,-,m,False,0.4450414180755615
10,d,-,-,True,0.49174070358276367
10,g,-,-,True,0.47103166580200195
10,b,-,-,True,0.5801959037780762
10,g,m,-,False,0.5041821002960205
10,b,m,-,False,0.6175196170806885
10,g,m,-,False,0.6243727207183838
10,w,-,-,True,0.5093569755554199
10,g,m,-,False,0.5961527824401855
10,p,-,-,True,1.4854736328125
10,b,-,-,True,0.49338459968566895
10,n,-,-,True,0.5063138008117676
10,v,-,-,True,0.5283582210540771
10,d,-,m,False,0.5385422706604004
10,v,m,-,False,0.5314762592315674
10,b,-,-,True,0.5161480903625488
10,v,m,-,False,0.6123526096343994
10,y,-,-,True,0.4535093307495117
10,n,-,-,True,0.5259919166564941
10,y,m,-,False,0.6199140548706055
10,t,-,-,True,0.46522998809814453
11,q,-,-,True,1.030344009399414
11,s,-,-,True,0.49321889877319336
11,q,m,-,False,0.5107789039611816
11,s,m,-,False,0.49073052406311035
11,n,-,-,True,0.6444525718688965
11,v,-,-,True,0.5020525455474854
11,n,m,-,False,0.5731596946716309
11,v,m,m,True,1.4761600494384766
11,n,m,-,False,0.6097738742828369
11,r,-,-,True,0.5041782855987549
11,b,-,-,True,0.5237078666687012
11,h,-,-,True,0.7858693599700928
11,y,-,-,True,0.6156938076019287
11,h,m,-,False,0.9350101947784424
11,b,-,-,True,0.7117342948913574
11,l,-,-,True,0.7752280235290527
11,b,m,-,False,0.47576093673706055
11,w,-,-,True,0.7107915878295898
11,z,-,-,True,1.5650277137756348
11,r,-,-,True,0.6064093112945557
11,z,m,-,False,1.6295726299285889
11,p,-,-,True,0.6443076133728027
11,f,-,-,True,1.0342612266540527
11,c,-,-,True,0.5001294612884521
12,v,-,-,True,1.5138392448425293
12,y,-,-,True,0.5736744403839111
12,s,-,-,True,0.484483003616333
12,d,-,-,True,0.429401159286499
12,n,-,-,True,0.7614166736602783
12,d,m,-,False,0.5698502063751221
12,g,-,-,True,0.5023019313812256
12,v,-,-,True,0.45461440086364746
12,g,m,m,True,0.43943095207214355
12,v,m,-,False,0.5405707359313965
12,j,-,-,True,0.45111656188964844
12,v,m,-,False,1.4623560905456543
12,h,-,-,True,0.6051361560821533
12,c,-,-,True,0.48225903511047363
12,j,-,-,True,0.8715271949768066
12,v,-,-,True,0.4953114986419678
12,q,-,-,True,0.4973928928375244
12,v,m,-,False,0.5102577209472656
12,q,m,-,False,0.9999942779541016
12,b,-,-,True,0.5136959552764893
12,q,m,-,False,0.5032632350921631
12,s,-,-,True,0.5960867404937744
12,q,m,m,True,0.5839428901672363
12,h,-,-,True,0.49564671516418457
13,l,-,-,True,1.0133953094482422
13,z,-,-,True,0.5578203201293945
13,l,m,-,False,0.5417830944061279
13,z,m,-,False,0.46869492530822754
13,x,-,-,True,0.5861575603485107
13,c,-,-,True,0.5054473876953125
13,x,m,-,False,0.494873046875
13,z,-,m,False,0.5127582550048828
13,x,m,-,False,0.6005096435546875
13,v,-,-,True,0.49129414558410645
13,z,-,-,True,0.5284292697906494
13,v,m,-,False,0.4925234317779541
13,z,m,m,True,0.5021758079528809
13,q,-,-,True,0.4929080009460449
13,z,m,m,True,0.611278772354126
13,s,-,-,True,0.9763517379760742
13,x,-,-,True,0.6039221286773682
13,d,-,-,True,0.5324258804321289
13,g,-,-,True,0.6158807277679443
13,k,-,-,True,0.5486705303192139
13,r,-,-,True,0.6302030086517334
13,b,-,-,True,1.4725470542907715
13,r,m,-,False,0.6083455085754395
13,j,-,-,True,0.5946896076202393
14,r,-,-,True,0.9509167671203613
14,h,-,-,True,1.0445213317871094
14,r,m,-,False,0.5812389850616455
14,h,m,-,False,0.7318098545074463
14,c,-,-,True,0.6198594570159912
14,h,m,m,True,0.9691638946533203
14,p,-,-,True,0.502938985824585
14,h,m,-,False,0.6132018566131592
14,w,-,-,True,0.504896879196167
14,c,-,-,True,0.5792560577392578
14,w,m,-,False,0.524341344833374
14,t,-,-,True,0.49597954750061035
14,w,m,m,True,0.7550714015960693
14,c,-,-,True,0.5875387191772461
14,j,-,-,True,0.493243932723999
14,c,m,-,False,0.5196254253387451
14,q,-,-,True,0.8202195167541504
14,f,-,-,True,0.4534628391265869
14,w,-,-,True,0.45151281356811523
14,r,-,-,True,0.527280330657959
14,w,m,m,True,1.4793379306793213
14,y,-,-,True,0.5783548355102539
14,d,-,-,True,0.5328574180603027
14,s,-,-,True,0.5046157836914062
15,d,-,-,True,0.605231523513794
15,r,-,-,True,0.5592107772827148
15,d,m,-,False,0.4463512897491455
15,n,-,-,True,0.48800015449523926
15,b,-,-,True,0.5759425163269043
15,n,m,m,True,0.5063576698303223
15,b,m,-,False,0.5929536819458008
15,b,-,m,False,0.5833740234375
15,n,-,-,True,0.4447009563446045
15,v,-,-,True,1.0105493068695068
15,n,m,-,False,0.49213480949401855
15,r,-,-,True,0.6114201545715332
15,k,-,-,True,0.5852384567260742
15,d,-,-,True,0.6152853965759277
15,d,-,m,False,0.6143193244934082
15,l,-,-,True,0.587890625
15,c,-,-,True,1.5414328575134277
15,l,m,-,False,0.6162946224212646
15,b,-,m,False,0.4662184715270996
15,s,-,-,True,0.5206630229949951
15,r,-,-,True,0.6236793994903564
15,s,m,-,False,0.5717148780822754
15,r,m,m,True,1.0463156700134277
15,s,m,-,False,0.5278608798980713
16,x,-,-,True,0.4979512691497803
16,c,-,-,True,0.4368257522583008
16,q,-,-,True,0.5439167022705078
16,c,m,-,False,0.5808444023132324
16,j,-,-,True,0.7263307571411133
16,n,-,-,True,0.5397951602935791
16,j,m,-,False,0.48946571350097656
16,n,m,-,False,0.5115461349487305
16,q,-,m,False,0.7701520919799805
16,b,-,-,True,0.5962791442871094
16,d,-,-,True,0.5610840320587158
16,p,-,m,False,37.49284815788269
16,q,-,-,True,0.7005925178527832
16,c,-,-,True,0.5958380699157715
16,w,-,-,True,0.7100639343261719
16,t,-,-,True,0.6317827701568604
16,w,m,-,False,1.351714849472046
16,t,m,m,True,0.590179443359375
16,b,-,m,False,25.792145013809204
16,j,-,-,True,0.7678561210632324
16,b,m,-,False,0.6673460006713867
16,j,m,-,False,0.7195413112640381
16,w,-,-,True,1.5818326473236084
16,j,m,-,False,1.6476027965545654
17,l,-,-,True,0.523127555847168
17,y,-,-,True,0.592545747756958
17,k,-,-,True,0.5576865673065186
17,y,m,-,False,0.4719562530517578
17,k,m,-,False,0.45958590507507324
17,y,m,m,True,0.4954793453216553
17,z,-,-,True,0.5006663799285889
17,y,m,m,True,0.6056289672851562
17,j,-,-,True,0.49256420135498047
17,j,-,m,False,0.5803408622741699
17,j,m,m,True,0.503096342086792
17,w,-,-,True,0.4555506706237793
17,y,-,-,True,0.5916390419006348
17,f,-,-,True,0.5470585823059082
17,z,-,-,True,0.5353505611419678
17,g,-,-,True,0.5895302295684814
17,z,m,-,False,0.6096100807189941
17,j,-,-,True,0.6297712326049805
17,z,m,-,False,0.5217225551605225
17,j,m,-,False,0.6345751285552979
17,f,-,-,True,0.5116996765136719
17,y,-,m,False,0.5096743106842041
17,y,-,m,False,1.4982054233551025
17,j,-,m,False,0.6153810024261475
18,q,-,-,True,1.0224688053131104
18,w,-,-,True,0.5785026550292969
18,q,m,-,False,0.4349710941314697
18,p,-,-,True,0.4834740161895752
18,z,-,-,True,0.5259876251220703
18,p,m,m,True,0.7071061134338379
18,z,m,-,False,0.6240699291229248
18,p,m,-,False,0.48187828063964844
18,g,-,-,True,0.7121033668518066
18,c,-,-,True,0.574979305267334
18,q,-,-,True,0.5710217952728271
18,c,m,-,False,0.49315500259399414
18,j,-,-,True,0.5570359230041504
18,x,-,-,True,0.5593550205230713
18,d,-,-,True,0.5743305683135986
18,n,-,-,True,0.49954938888549805
18,w,-,-,True,0.47565412521362305
18,n,m,-,False,0.5903522968292236
18,h,-,-,True,0.47887587547302246
18,n,m,m,True,0.4909176826477051
18,h,m,-,False,0.5096242427825928
18,h,-,m,False,1.0469660758972168
18,g,-,-,True,0.4654872417449951
18,f,-,-,True,1.4427692890167236
19,y,-,-,True,0.5483472347259521
19,h,-,-,True,0.4263596534729004
19,z,-,-,True,1.4261174201965332
19,f,-,-,True,0.47487664222717285
19,q,-,-,True,0.9180717468261719
19,p,-,-,True,0.5609402656555176
19,h,-,-,True,0.41126012802124023
19,r,-,-,True,0.543870210647583
19,r,-,m,False,0.5203323364257812
19,r,m,-,False,0.4669632911682129
19,r,m,m,True,0.5625817775726318
19,r,m,-,False,0.538576602935791
19,x,-,-,True,0.4578511714935303
19,r,m,-,False,0.4792811870574951
19,c,-,-,True,0.5684969425201416
19,v,-,-,True,0.6775288581848145
19,c,m,-,False,0.7463698387145996
19,l,-,-,True,0.6759364604949951
19,h,-,-,True,0.7207028865814209
19,l,m,m,True,0.4766075611114502
19,h,m,-,False,0.5717160701751709
19,d,-,-,True,0.4604051113128662
19,r,-,-,True,0.4821655750274658
19,d,m,-,False,0.4844977855682373
20,t,-,-,True,0.9064621925354004
20,w,-,-,True,0.5785274505615234
20,d,-,-,True,0.6015448570251465
20,j,-,-,True,0.49025869369506836
20,r,-,-,True,0.4960329532623291
20,t,-,m,False,0.4908897876739502
20,r,m,-,False,0.47720813751220703
20,t,m,-,False,1.4657492637634277
20,v,-,-,True,0.5050878524780273
20,h,-,-,True,1.174393653869629
20,v,m,-,False,0.6224420070648193
20,g,-,-,True,0.5484902858734131
20,v,m,-,False,0.5779798030853271
20,d,-,-,True,0.9296779632568359
20,v,m,-,False,0.9541170597076416
20,q,-,-,True,0.5961673259735107
20,f,-,-,True,0.6172511577606201
20,q,m,-,False,0.6389784812927246
20,w,-,m,False,0.7039344310760498
20,q,m,-,False,0.5040988922119141
20,w,m,m,True,0.963047981262207
20,n,-,-,True,0.9777154922485352
20,c,-,-,True,0.531933069229126
20,c,-,m,False,0.5542752742767334
21,d,-,-,True,1.0153663158416748
21,w,-,-,True,0.5596742630004883
21,d,-,-,True,0.6265444755554199
21,c,-,-,True,0.7743847370147705
21,h,-,-,True,0.5992870330810547
21,c,m,-,False,0.7359206676483154
21,r,-,-,True,0.8420372009277344
21,n,-,-,True,0.5104939937591553
21,r,m,-,False,0.6313142776489258
21,c,-,m,False,0.9851763248443604
21,r,m,INVALID:Draw四,False,0.6039092540740967
21,x,-,-,True,0.5039808750152588
21,q,-,-,True,0.6000514030456543
21,x,m,m,True,0.5841712951660156
21,q,m,-,False,0.5060014724731445
21,k,-,-,True,0.5012350082397461
21,f,-,-,True,0.48929548263549805
21,k,m,m,True,1.6665711402893066
21,n,-,-,True,0.5262002944946289
21,c,-,-,True,0.5843992233276367
21,n,m,m,True,0.5692880153656006
21,c,m,-,False,0.7637336254119873
21,s,-,-,True,0.7482173442840576
21,b,-,-,True,0.9532546997070312
22,z,-,-,True,1.1105458736419678
22,j,-,-,True,0.5661695003509521
22,b,-,-,True,0.4820845127105713
22,j,m,-,False,0.49623799324035645
22,b,m,-,False,0.941544771194458
22,w,-,-,True,0.5528602600097656
22,b,m,m,True,0.43709421157836914
22,h,-,-,True,1.5763206481933594
22,w,-,-,True,0.49317502975463867
22,h,m,-,False,0.5095033645629883
22,b,-,m,False,0.4908101558685303
22,t,-,-,True,0.49919819831848145
22,d,-,-,True,1.0026156902313232
22,t,m,-,False,0.6103920936584473
22,p,-,-,True,0.7418878078460693
22,j,-,-,True,0.5462045669555664
22,p,m,-,False,0.5077910423278809
22,j,m,-,False,0.5062222480773926
22,f,-,-,True,0.5246937274932861
22,j,m,m,True,0.8026351928710938
22,g,-,-,True,0.49823927879333496
22,r,-,-,True,0.46892237663269043
22,w,-,m,False,0.552870512008667
22,w,-,-,True,0.6319630146026611
23,n,-,-,True,0.6168026924133301
23,k,-,-,True,0.4737246036529541
23,n,m,-,False,0.5976667404174805
23,r,-,-,True,0.5634729862213135
23,s,-,-,True,0.5996973514556885
23,d,-,-,True,0.58302903175354
23,s,m,m,True,0.5258126258850098
23,v,-,-,True,0.6687502861022949
23,y,-,-,True,0.7273752689361572
23,v,m,-,False,1.5071606636047363
23,y,m,m,True,1.579601526260376
23,k,-,-,True,1.0258641242980957
23,n,-,-,True,0.5854504108428955
23,k,m,m,True,0.4909656047821045
23,l,-,-,True,0.5835022926330566
23,k,m,-,False,1.4967694282531738
23,n,-,-,True,0.5924806594848633
23,c,-,-,True,0.5795783996582031
23,j,-,-,True,0.5084536075592041
23,c,m,-,False,0.5862557888031006
23,j,m,-,False,0.5146923065185547
23,k,-,m,False,0.44960546493530273
23,s,-,-,True,0.5164005756378174
23,g,-,-,True,0.513031005859375
24,p,-,-,True,0.625985860824585
24,h,-,-,True,0.6040270328521729
24,p,m,-,False,0.5200831890106201
24,h,m,-,False,0.8707702159881592
24,c,-,-,True,1.187713861465454
24,t,-,-,True,1.4514591693878174
24,c,m,m,True,0.9724225997924805
24,t,m,-,False,0.4756889343261719
24,y,-,-,True,1.047903299331665
24,t,m,-,False,0.5742356777191162
24,b,-,-,True,0.5901479721069336
24,y,-,-,True,0.5060110092163086
24,c,-,-,True,0.496079683303833
24,y,m,m,True,0.616431713104248
24,c,m,-,False,0.6624283790588379
24,r,-,-,True,0.6108212471008301
24,t,-,-,True,1.0430052280426025
24,g,-,-,True,0.4993007183074951
24,t,m,m,True,0.481095552444458
24,h,-,-,True,0.8286588191986084
24,f,-,-,True,0.5857412815093994
24,g,-,-,True,1.5991206169128418
24,x,-,-,True,0.48321032524108887
24,k,-,-,True,0.9794957637786865
25,x,-,-,True,1.1404507160186768
25,r,-,-,True,0.7140710353851318
25,c,-,-,True,0.5532081127166748
25,l,-,-,True,0.6106100082397461
25,c,m,-,False,0.5986306667327881
25,l,m,-,False,0.5079705715179443
25,r,-,-,True,0.6084699630737305
25,j,-,-,True,0.9581739902496338
25,g,-,-,True,0.5391092300415039
25,j,m,-,False,0.621821403503418
25,g,m,m,True,0.4798698425292969
25,j,m,-,False,0.6161267757415771
25,n,-,-,True,0.6131739616394043
25,n,-,m,False,0.5153636932373047
25,n,m,m,True,0.6279141902923584
25,t,-,-,True,0.9036045074462891
25,n,m,m,True,0.7942266464233398
25,f,-,-,True,0.5888090133666992
25,x,-,-,True,0.6716997623443604
25,z,-,-,True,0.6565184593200684
25,w,-,-,True,1.6686382293701172
25,k,-,m,False,0.5724425315856934
25,s,-,-,True,0.6403841972351074
25,k,m,m,True,0.7829499244689941
26,j,-,-,True,0.6359395980834961
26,f,-,-,True,0.6179137229919434
26,v,-,-,True,0.5507717132568359
26,k,-,-,True,0.6106011867523193
26,p,-,-,True,0.5015208721160889
26,p,-,m,False,0.9523472785949707
26,s,-,-,True,0.510418176651001
26,p,m,m,True,0.5052182674407959
26,w,-,-,True,0.7615373134613037
26,p,m,m,True,1.0727965831756592
26,n,-,-,True,0.5771181583404541
26,l,-,-,True,0.5275857448577881
26,p,-,m,False,0.882422685623169
26,l,m,-,False,0.6261084079742432
26,l,-,m,False,0.6599748134613037
26,w,-,-,True,0.7736833095550537
26,l,m,-,False,0.5567426681518555
26,w,m,-,False,0.568202018737793
26,l,m,-,False,0.5335195064544678
26,t,-,-,True,0.6343107223510742
26,f,-,-,True,0.5695409774780273
26,t,m,-,False,0.8139810562133789
26,f,m,-,False,0.5088953971862793
26,c,-,-,True,0.5730276107788086
27,l,-,-,True,0.8354053497314453
27,j,-,-,True,0.6897823810577393
27,b,-,-,True,0.4396240711212158
27,r,-,-,True,0.4762237071990967
27,q,-,-,True,0.4628627300262451
27,r,m,-,False,0.5551540851593018
27,q,m,m,True,0.9294202327728271
27,r,m,-,False,0.4360778331756592
27,r,-,m,False,0.5300116539001465
27,j,-,-,True,0.9699461460113525
27,c,-,-,True,0.5471913814544678
27,c,-,m,False,0.459212064743042
27,d,-,-,True,0.9865343570709229
27,q,-,-,True,0.5729641914367676
27,d,m,-,False,0.7218213081359863
27,s,-,-,True,0.9398434162139893
27,d,m,-,False,1.451521396636963
27,t,-,-,True,0.499056339263916
27,d,m,-,False,0.4416074752807617
27,n,-,-,True,0.453540563583374
27,y,-,-,True,0.44977331161499023
27,g,-,-,True,0.5003869533538818
27,y,m,-,False,0.49372315406799316
27,g,m,-,False,0.568213701248169
28,h,-,-,True,0.578824520111084
28,f,-,-,True,0.48102855682373047
28,h,m,-,False,0.5507304668426514
28,t,-,-,True,0.545557975769043
28,h,m,m,True,0.47356343269348145
28,c,-,-,True,0.49030399322509766
28,h,m,-,False,0.5566253662109375
28,c,m,-,False,0.5316576957702637
28,p,-,-,True,0.4619293212890625
28,d,-,-,True,0.9011526107788086
28,s,-,-,True,0.580500602722168
28,d,m,-,False,0.9888143539428711
28,z,-,-,True,0.46750736236572266
28,d,m,m,True,0.4885857105255127
28,z,m,-,False,1.0163028240203857
28,f,-,-,True,0.7057373523712158
28,q,-,-,True,0.48479795455932617
28,q,-,-,True,0.42829012870788574
28,w,-,-,True,0.5791630744934082
28,x,-,-,True,0.4920651912689209
28,w,m,-,False,1.4482839107513428
28,k,-,-,True,1.0100047588348389
28,b,-,-,True,0.5635745525360107
28,f,-,-,True,0.6082804203033447
29,b,-,-,True,0.5350933074951172
29,g,-,-,True,0.5422604084014893
29,w,-,-,True,0.4973411560058594
29,g,m,-,False,0.6737594604492188
29,w,m,-,False,0.47367119789123535
29,d,-,-,True,0.9096469879150391
29,r,-,-,True,0.4584324359893799
29,n,-,-,True,0.8943405151367188
29,g,-,-,True,0.5467500686645508
29,n,m,-,False,0.47022294998168945
29,g,m,-,False,1.0005226135253906
29,j,-,-,True,0.9453897476196289
29,z,-,-,True,0.5172007083892822
29,j,m,-,False,0.9306232929229736
29,t,-,-,True,0.5903794765472412
29,l,-,-,True,0.4513401985168457
29,t,m,-,False,0.9924700260162354
29,t,-,-,True,0.9080593585968018
29,y,-,-,True,0.5602593421936035
29,v,-,-,True,0.94576096534729
29,b,-,-,True,0.5436594486236572
29,v,m,-,False,0.4855208396911621
29,b,m,m,True,0.42923569679260254
29,d,-,-,True,0.4538917541503906
30,j,-,-,True,0.5500750541687012
30,b,-,-,True,0.6822195053100586
30,k,-,-,True,0.5224013328552246
30,b,m,-,False,0.47953319549560547
30,g,-,-,True,0.5759289264678955
30,b,m,m,True,0.5047609806060791
30,g,m,-,False,0.9901180267333984
30,b,m,-,False,0.6720676422119141
30,c,-,-,True,0.9879155158996582
30,b,m,-,False,0.44722676277160645
30,n,-,-,True,0.4547762870788574
30,g,-,-,True,0.4476761817932129
30,g,-,m,False,0.4898388385772705
30,b,-,m,False,0.4486362934112549
30,k,-,-,True,0.4589712619781494
30,b,m,-,False,0.6003470420837402
30,k,m,-,False,0.42609190940856934
30,v,-,-,True,0.5727298259735107
30,y,-,-,True,0.4725675582885742
30,t,-,-,True,0.901371955871582
30,l,-,-,True,0.5828840732574463
30,s,-,-,True,0.4702608585357666
30,j,-,-,True,0.7318964004516602
30,s,m,-,False,1.015545129776001
31,z,-,-,True,0.6658215522766113
31,c,-,-,True,0.5373139381408691
31,y,-,-,True,0.4015185832977295
31,t,-,-,True,0.5346252918243408
31,k,-,-,True,0.392742395401001
31,j,-,-,True,0.9546685218811035
31,s,-,-,True,0.5814976692199707
31,j,m,-,False,0.5349552631378174
31,s,m,m,True,1.388284683227539
31,n,-,-,True,1.4331591129302979
31,l,-,-,True,0.4592881202697754
31,s,-,m,False,0.5781054496765137
31,k,-,-,True,0.5354607105255127
31,s,m,m,True,0.48818373680114746
31,k,m,-,False,1.445265769958496
31,d,-,-,True,0.5666813850402832
31,k,m,-,False,0.5799386501312256
31,r,-,-,True,0.4703536033630371
31,k,m,-,False,0.5656731128692627
31,z,-,-,True,0.9570002555847168
31,k,m,-,False,0.5463213920593262
31,z,m,-,False,0.9194972515106201
31,p,-,-,True,0.5056626796722412
31,n,-,-,True,0.58207106590271
32,z,-,-,True,0.5398352146148682
32,s,-,-,True,0.41912245750427246
32,z,m,-,False,0.5391857624053955
32,d,-,-,True,0.48625922203063965
32,y,-,-,True,1.15199875831604
32,l,-,-,True,0.49185800552368164
32,y,m,-,False,0.5003547668457031
32,q,-,-,True,0.4397878646850586
32,y,m,-,False,0.6149699687957764
32,q,m,-,False,0.502985954284668
32,y,m,m,True,0.7030284404754639
32,s,-,-,True,0.4657320976257324
32,k,-,-,True,0.4992492198944092
32,l,-,-,True,0.9867606163024902
32,k,m,-,False,0.6108005046844482
32,p,-,-,True,0.4870569705963135
32,p,-,m,False,0.6503043174743652
32,p,m,m,True,0.9205965995788574
32,q,-,-,True,0.630812406539917
32,b,-,-,True,0.7288565635681152
32,h,-,-,True,0.5645256042480469
32,b,m,-,False,1.007335901260376
32,n,-,-,True,0.6526613235473633
32,v,-,-,True,1.1420769691467285
33,g,-,-,True,1.4793565273284912
33,d,-,-,True,0.4660780429840088
33,t,-,-,True,0.5544776916503906
33,p,-,-,True,0.42092132568359375
33,x,-,-,True,0.45577120780944824
33,p,m,-,False,0.5341286659240723
33,p,-,m,False,0.4684927463531494
33,t,-,-,True,0.4523630142211914
33,b,-,-,True,0.45691823959350586
33,s,-,-,True,0.9658999443054199
33,b,m,-,False,0.9118351936340332
33,p,-,-,True,0.4562387466430664
33,b,m,m,True,0.5533113479614258
33,p,m,m,True,0.7282588481903076
33,w,-,-,True,0.4784586429595947
33,r,-,-,True,0.4636967182159424
33,w,m,-,False,0.6096100807189941
33,v,-,-,True,1.028649091720581
33,w,m,-,False,0.5368020534515381
33,x,-,-,True,0.4530646800994873
33,l,-,-,True,0.7083115577697754
33,x,m,-,False,0.4808957576751709
33,l,m,-,False,0.4841458797454834
33,v,-,-,True,1.0641944408416748
34,k,-,-,True,0.5827805995941162
34,g,-,-,True,0.5316121578216553
34,f,-,-,True,0.54534912109375
34,t,-,-,True,0.6362335681915283
34,b,-,-,True,0.46556639671325684
34,c,-,-,True,0.6853716373443604
34,b,m,-,False,0.7022418975830078
34,k,-,-,True,0.4845006465911865
34,b,m,m,True,0.6294283866882324
34,n,-,-,True,0.9095923900604248
34,y,-,-,True,0.723153829574585
34,n,m,-,False,0.5466601848602295
34,f,-,m,False,0.5968337059020996
34,j,-,-,True,0.7229840755462646
34,v,-,-,True,0.48523902893066406
34,t,-,-,True,0.5749373435974121
34,v,m,-,False,0.4606285095214844
34,f,-,m,False,0.547959566116333
34,y,-,-,True,0.9732000827789307
34,f,m,-,False,0.46220850944519043
34,y,m,-,False,0.9859721660614014
34,k,-,m,False,0.47223854064941406
34,y,m,-,False,0.4141097068786621
34,k,m,m,True,0.4381544589996338
35,h,-,-,True,0.7306180000305176
35,z,-,-,True,0.6939263343811035
35,h,m,-,False,0.39341235160827637
35,z,m,-,False,0.45682597160339355
35,w,-,-,True,0.4219777584075928
35,z,m,m,True,1.0056431293487549
35,r,-,-,True,0.5724782943725586
35,z,m,m,True,0.4490835666656494
35,n,-,-,True,0.4359874725341797
35,r,-,-,True,1.1062092781066895
35,t,-,-,True,0.41197681427001953
35,v,-,-,True,0.43811774253845215
35,f,-,-,True,0.7222838401794434
35,v,m,-,False,0.7996912002563477
35,t,-,-,True,0.4701509475708008
35,h,-,-,True,0.5632045269012451
35,b,-,-,True,0.4697692394256592
35,h,m,m,True,0.7208364009857178
35,t,-,-,True,0.5172734260559082
35,h,m,m,True,0.567559003829956
35,t,m,-,False,0.6318585872650146
35,s,-,-,True,0.5779106616973877
35,q,-,-,True,0.5127372741699219
35,x,-,-,True,0.4652426242828369
36,f,-,-,True,0.47182679176330566
36,p,-,-,True,0.8653762340545654
36,f,m,-,False,0.45751094818115234
36,j,-,-,True,1.3950045108795166
36,q,-,-,True,0.8692216873168945
36,s,-,-,True,0.5765166282653809
36,v,-,-,True,0.9956066608428955
36,v,-,m,False,0.463303804397583
36,t,-,-,True,0.6594202518463135
36,g,-,-,True,0.8864190578460693
36,f,-,-,True,0.47611260414123535
36,g,m,-,False,0.5720279216766357
36,f,m,m,True,0.5488052368164062
36,g,m,-,False,0.46808838844299316
36,h,-,-,True,0.5603349208831787
36,x,-,-,True,0.7922928333282471
36,h,m,-,False,0.5630567073822021
36,v,-,m,False,0.5914876461029053
36,w,-,-,True,0.592280387878418
36,v,m,-,False,0.5807764530181885
36,w,m,m,True,0.4281587600708008
36,j,-,-,True,0.5821735858917236
36,w,m,-,False,0.7862775325775146
36,s,-,-,True,0.8128368854522705
37,s,-,-,True,0.8741612434387207
37,q,-,-,True,0.9833858013153076
37,s,-,-,True,0.9503047466278076
37,q,m,-,False,0.45511960983276367
37,k,-,-,True,0.9657816886901855
37,x,-,-,True,0.5546998977661133
37,c,-,-,True,0.7258756160736084
37,p,-,-,True,0.44748497009277344
37,c,m,-,False,0.49868202209472656
37,d,-,-,True,0.4969313144683838
37,c,m,m,True,1.5391576290130615
37,t,-,-,True,1.4465794563293457
37,j,-,-,True,0.5568616390228271
37,t,m,-,False,0.572615385055542
37,p,-,-,True,0.4940638542175293
37,k,-,-,True,0.6328587532043457
37,p,m,m,True,0.5828859806060791
37,k,m,-,False,0.5125164985656738
37,c,-,-,True,0.6337978839874268
37,v,-,-,True,0.6454710960388184
37,c,m,m,True,0.6149420738220215
37,v,m,-,False,0.4846057891845703
37,n,-,-,True,0.957693338394165
37,l,-,-,True,0.6180107593536377
38,h,-,-,True,0.9811232089996338
38,n,-,-,True,0.5159194469451904
38,h,m,-,False,0.4966468811035156
38,n,m,-,False,1.054145336151123
38,h,m,-,False,0.43324804306030273
38,w,-,-,True,1.053992509841919
38,n,-,m,False,0.5759150981903076
38,w,m,-,False,1.4740197658538818
38,j,-,-,True,0.6974682807922363
38,s,-,-,True,0.4896101951599121
38,p,-,-,True,0.5117502212524414
38,n,-,m,False,1.6004085540771484
38,p,m,-,False,0.6159839630126953
38,x,-,-,True,0.4746057987213135
38,k,-,-,True,1.0320677757263184
38,x,m,-,False,0.8135161399841309
38,k,m,-,False,0.4631669521331787
38,d,-,-,True,0.5143218040466309
38,k,m,m,True,0.6011757850646973
38,g,-,-,True,0.5688464641571045
38,b,-,-,True,1.5063345432281494
38,v,-,-,True,0.4456782341003418
38,c,-,-,True,0.7689898014068604
38,t,-,-,True,0.5204479694366455
39,s,-,-,True,0.5105640888214111
39,j,-,-,True,0.45836901664733887
39,r,-,-,True,0.49637746810913086
39,j,m,-,False,0.4855327606201172
39,c,-,-,True,1.4701058864593506
39,f,-,-,True,0.49387335777282715
39,t,-,-,True,0.9141101837158203
39,y,-,-,True,0.4795684814453125
39,l,-,-,True,0.6911101341247559
39,y,m,-,False,0.8936648368835449
39,x,-,-,True,0.5213162899017334
39,l,-,-,True,0.5060584545135498
39,s,-,-,True,0.6067919731140137
39,g,-,-,True,1.1491320133209229
39,j,-,-,True,0.5602586269378662
39,g,m,-,False,1.4744629859924316
39,j,m,m,True,1.0339372158050537
39,y,-,-,True,0.4944164752960205
39,j,m,-,False,0.5804071426391602
39,y,m,m,True,0.7279736995697021
39,q,-,-,True,0.6777927875518799
39,r,-,m,False,1.0098891258239746
39,q,m,-,False,0.509528636932373
39,r,m,m,True,0.5329928398132324
40,r,-,-,True,2.0483946800231934
40,x,-,-,True,0.5708394050598145
40,f,-,-,True,0.6683974266052246
40,p,-,-,True,0.682814359664917
40,f,m,-,False,0.48889636993408203
40,v,-,-,True,0.47043800354003906
40,f,m,m,True,0.595205545425415
40,g,-,-,True,0.44377946853637695
40,p,-,-,True,0.8237423896789551
40,z,-,-,True,0.5068552494049072
40,p,m,m,True,1.0604135990142822
40,z,m,-,False,0.9537582397460938
40,t,-,-,True,0.541130781173706
40,z,m,-,False,0.75187087059021
40,n,-,-,True,0.5131692886352539
40,p,-,m,False,0.5137538909912109
40,w,-,-,True,0.594597339630127
40,p,m,m,True,0.49383544921875
40,w,m,-,False,0.45902514457702637
40,p,m,m,True,0.7350642681121826
40,b,-,-,True,0.5518851280212402
40,d,-,-,True,0.5183796882629395
40,z,-,-,True,0.9984638690948486
40,s,-,-,True,0.6151745319366455
41,p,-,-,True,0.8776123523712158
41,w,-,-,True,0.4756922721862793
41,k,-,-,True,0.925745964050293
41,w,m,-,False,0.4371829032897949
41,h,-,-,True,0.45543575286865234
41,d,-,-,True,0.5005323886871338
41,g,-,-,True,0.5576083660125732
41,r,-,-,True,1.116828203201294
41,l,-,-,True,0.4353969097137451
41,c,-,-,True,0.42882847785949707
41,r,-,-,True,0.4298841953277588
41,z,-,-,True,0.5788989067077637
41,r,m,m,True,0.5954074859619141
41,z,m,-,False,0.6551859378814697
41,b,-,-,True,0.5423340797424316
41,z,m,-,False,0.5409483909606934
41,g,-,-,True,0.4730355739593506
41,z,m,-,False,0.48458123207092285
41,g,m,-,False,0.4957401752471924
41,q,-,-,True,0.47852349281311035
41,g,m,-,False,1.0978779792785645
41,r,-,-,True,0.9776685237884521
41,q,-,-,True,0.43508195877075195
41,r,m,m,True,0.5622649192810059
42,b,-,-,True,0.9915831089019775
42,h,-,-,True,0.5549435615539551
42,b,m,-,False,0.5343368053436279
42,r,-,-,True,0.5712127685546875
42,b,m,m,True,0.8703212738037109
42,r,m,-,False,0.7186346054077148
42,t,-,-,True,0.9168012142181396
42,l,-,-,True,0.4413280487060547
42,q,-,-,True,0.5964269638061523
42,l,m,-,False,0.7148082256317139
42,d,-,-,True,0.9879791736602783
42,l,m,m,True,0.5301997661590576
42,d,m,-,False,0.5597095489501953
42,y,-,-,True,0.48081541061401367
42,d,m,m,True,0.5933699607849121
42,p,-,-,True,0.4803452491760254
42,k,-,-,True,0.4280428886413574
42,w,-,-,True,0.525198221206665
42,s,-,m,False,0.6270525455474854
42,l,-,-,True,0.5269594192504883
42,b,-,-,True,0.5052621364593506
42,l,m,-,False,0.6026692390441895
42,c,-,-,True,0.4908261299133301
42,d,-,-,True,0.4863452911376953
43,j,-,-,True,0.46680188179016113
43,d,-,-,True,0.7014162540435791
43,j,m,-,False,0.5580110549926758
43,s,-,-,True,0.5512988567352295
43,s,-,m,False,0.49313831329345703
43,s,m,-,False,0.7113351821899414
43,p,-,-,True,0.8942587375640869
43,s,m,-,False,0.5656838417053223
43,p,m,-,False,5.540185928344727
43,k,-,-,True,0.6163654327392578
43,t,-,-,True,0.5052671432495117
43,k,m,-,False,0.5978069305419922
43,k,-,m,False,0.46334385871887207
43,k,m,-,False,0.5743758678436279
43,s,-,-,True,0.4630162715911865
43,k,m,-,False,0.5873069763183594
43,s,m,-,False,0.6264638900756836
43,l,-,-,True,0.6449627876281738
43,l,-,-,True,0.6238741874694824
43,c,-,-,True,0.9514639377593994
43,j,-,-,True,0.5123064517974854
43,w,-,-,True,0.517735481262207
43,n,-,-,True,1.004296064376831
43,r,-,-,True,0.6791391372680664
44,n,-,-,True,0.9253759384155273
44,w,-,-,True,0.9608645439147949
44,p,-,-,True,0.5504767894744873
44,x,-,-,True,1.4145290851593018
44,v,-,-,True,0.5672276020050049
44,w,-,-,True,1.4653165340423584
44,d,-,-,True,0.4524679183959961
44,g,-,-,True,0.5367493629455566
44,r,-,-,True,0.5793583393096924
44,g,m,m,True,1.4636921882629395
44,r,m,-,False,0.5703604221343994
44,h,-,-,True,0.49785494804382324
44,d,-,-,True,0.625601053237915
44,q,-,-,True,0.46700263023376465
44,d,m,m,True,0.5322003364562988
44,x,-,-,True,1.4684832096099854
44,d,m,-,False,0.5935347080230713
44,x,m,-,False,0.4962458610534668
44,d,m,-,False,0.5251450538635254
44,x,m,-,False,0.4828681945800781
44,d,m,-,False,0.7535984516143799
44,p,-,-,True,0.6017372608184814
44,z,-,m,False,0.5248250961303711
44,n,-,-,True,0.6056334972381592
45,f,-,-,True,1.2495534420013428
45,r,-,-,True,0.47380852699279785
45,w,-,-,True,1.6361021995544434
45,r,m,-,False,1.0024065971374512
45,w,m,-,False,0.4726080894470215
45,k,-,-,True,0.661414623260498
45,n,-,-,True,0.5702378749847412
45,k,m,-,False,0.5747115612030029
45,n,m,-,False,0.5741426944732666
45,y,-,-,True,0.4601273536682129
45,k,-,-,True,0.598031759262085
45,z,-,-,True,1.439889907836914
45,t,-,-,True,0.5894589424133301
45,l,-,-,True,0.5866203308105469
45,v,-,-,True,0.7127294540405273
45,l,m,-,False,0.620551586151123
45,v,m,-,False,0.9485700130462646
45,l,m,-,False,0.9260566234588623
45,g,-,-,True,0.4810638427734375
45,c,-,-,True,0.9430758953094482
45,g,m,-,False,0.4847292900085449
45,b,-,-,True,0.5585145950317383
45,y,-,-,True,0.5068862438201904
45,n,-,-,True,0.4949178695678711
46,q,-,-,True,0.5092265605926514
46,v,-,-,True,0.4551675319671631
46,g,-,-,True,0.9698171615600586
46,k,-,-,True,0.5180308818817139
46,f,-,-,True,0.5012319087982178
46,k,m,-,False,0.46409177780151367
46,f,m,-,False,0.49010252952575684
46,k,m,-,False,0.6985671520233154
46,s,-,-,True,0.585472583770752
46,d,-,-,True,0.5999815464019775
46,p,-,-,True,0.5222756862640381
46,d,m,-,False,0.6002142429351807
46,p,m,m,True,0.5922284126281738
46,k,-,-,True,0.5013842582702637
46,p,m,-,False,0.5987932682037354
46,y,-,-,True,1.0437395572662354
46,p,m,-,False,0.43737030029296875
46,n,-,-,True,1.2758653163909912
46,p,m,-,False,0.5296854972839355
46,s,-,-,True,0.49491024017333984
46,w,-,-,True,0.7724804878234863
46,c,-,-,True,0.4818236827850342
46,l,-,-,True,0.5024313926696777
46,s,-,-,True,0.5129103660583496
47,z,-,-,True,1.0795395374298096
47,r,-,-,True,0.5484333038330078
47,l,-,-,True,0.534498929977417
47,r,m,-,False,0.5996904373168945
47,l,m,m,True,0.5145792961120605
47,j,-,-,True,0.5010621547698975
47,l,m,-,False,0.8114509582519531
47,s,-,-,True,0.5183041095733643
47,g,-,-,True,0.5884795188903809
47,s,m,-,False,0.4874992370605469
47,b,-,-,True,1.0452032089233398
47,s,m,m,True,0.5168933868408203
47,h,-,-,True,0.5069315433502197
47,w,-,-,True,0.4966244697570801
47,t,-,-,True,0.5567700862884521
47,d,-,-,True,0.5360054969787598
47,s,-,-,True,0.5544552803039551
47,b,-,-,True,0.6131596565246582
47,s,m,m,True,1.3725671768188477
47,h,-,-,True,1.0770199298858643
47,s,m,m,True,0.662452220916748
47,l,-,m,False,0.600116491317749
47,x,-,-,True,0.7539823055267334
47,l,m,-,False,0.514549970626831
48,j,-,-,True,0.48279666900634766
48,x,-,-,True,0.7081625461578369
48,j,m,-,False,0.6057686805725098
48,x,m,-,False,0.5009922981262207
48,n,-,-,True,0.4936823844909668
48,v,-,-,True,0.45924901962280273
48,n,m,-,False,1.1712405681610107
48,d,-,-,True,0.5687737464904785
48,n,m,-,False,0.49874210357666016
48,w,-,-,True,0.5760006904602051
48,c,-,-,True,0.9580714702606201
48,w,m,-,False,0.5065474510192871
48,c,m,-,False,1.0647742748260498
48,z,-,-,True,0.60215163230896
48,h,-,-,True,0.5901501178741455
48,z,m,-,False,0.4989736080169678
48,f,-,-,True,0.5930709838867188
48,x,-,-,True,0.5914504528045654
48,t,-,-,True,0.5209028720855713
48,f,-,-,True,0.6062123775482178
48,t,m,-,False,0.5212259292602539
48,y,-,-,True,0.6146249771118164
48,c,-,-,True,0.7597534656524658
48,h,-,-,True,0.5975217819213867
49,q,-,-,True,0.5642819404602051
49,j,-,-,True,0.4755561351776123
49,c,-,-,True,1.4355533123016357
49,j,m,-,False,0.4965388774871826
49,w,-,-,True,0.4575927257537842
49,v,-,-,True,0.5838263034820557
49,n,-,-,True,0.4861633777618408
49,v,m,m,True,0.574500560760498
49,d,-,-,True,1.536543369293213
49,x,-,-,True,0.611943244934082
49,h,-,-,True,0.5832464694976807
49,p,-,-,True,0.793065071105957
49,h,m,-,False,0.6158428192138672
49,p,m,-,False,0.5468883514404297
49,h,m,m,True,0.4797065258026123
49,d,-,-,True,0.4915730953216553
49,d,-,m,False,0.5068221092224121
49,l,-,-,True,0.5077774524688721
49,w,-,-,True,0.5639045238494873
49,q,-,-,True,0.5397512912750244
49,t,-,-,True,0.5359916687011719
49,q,m,m,True,32.32658767700195
49,t,m,-,False,0.7972033023834229
49,q,m,-,False,0.6553370952606201
