block,trial,target,response,correct,rt
0,l,-,-,True,1.0867114067077637
0,f,-,-,True,0.5883662700653076
0,n,-,-,True,0.5199933052062988
0,y,-,-,True,0.5633385181427002
0,n,m,-,False,1.165276050567627
0,z,-,-,True,0.7769877910614014
0,z,-,m,False,0.6352689266204834
0,w,-,-,True,0.5674428939819336
0,x,-,-,True,0.5308635234832764
0,n,-,m,False,0.5447697639465332
0,y,-,-,True,0.5711836814880371
0,t,-,-,True,0.6691315174102783
0,y,m,m,True,1.012772798538208
0,t,m,-,False,0.5386581420898438
0,v,-,-,True,0.5540413856506348
0,v,-,m,False,0.6699330806732178
0,v,m,-,False,0.5220527648925781
0,v,m,m,True,0.5357937812805176
0,c,-,-,True,0.4964027404785156
0,n,-,-,True,0.5778579711914062
0,j,-,-,True,0.7434225082397461
0,n,m,-,False,0.5186316967010498
0,j,m,-,False,0.5130767822265625
0,n,m,-,False,1.4910252094268799
1,s,-,-,True,1.0980181694030762
1,r,-,-,True,0.4861729145050049
1,g,-,-,True,0.6856520175933838
1,r,m,-,False,0.8567771911621094
1,w,-,-,True,0.47049450874328613
1,r,m,-,False,0.5579760074615479
1,j,-,-,True,0.5647025108337402
1,w,-,-,True,0.4837486743927002
1,d,-,-,True,0.4582672119140625
1,f,-,-,True,0.5679991245269775
1,j,-,-,True,0.9029014110565186
1,f,m,m,True,0.46508264541625977
1,j,m,-,False,0.5027344226837158
1,f,m,-,False,0.8845047950744629
1,q,-,-,True,0.9182078838348389
1,g,-,-,True,0.9277024269104004
1,q,m,-,False,0.46898436546325684
1,z,-,-,True,0.6069982051849365
1,q,m,-,False,0.4985637664794922
1,v,-,-,True,0.5257582664489746
1,y,-,-,True,0.5930571556091309
1,f,-,-,True,0.7290048599243164
1,y,m,-,False,0.4990658760070801
1,q,-,-,True,0.48978328704833984
2,w,-,-,True,0.6163809299468994
2,v,-,-,True,0.9064655303955078
2,j,-,-,True,0.9023699760437012
2,v,m,-,False,0.4422333240509033
2,j,m,-,False,0.7141273021697998
2,t,-,-,True,0.45182251930236816
2,j,m,-,False,0.7010514736175537
2,s,-,-,True,0.7378790378570557
2,w,-,-,True,0.46689319610595703
2,s,m,-,False,0.4713749885559082
2,k,-,-,True,0.9113922119140625
2,s,m,-,False,0.4614541530609131
2,k,m,-,False,0.47959065437316895
2,p,-,-,True,0.48761892318725586
2,x,-,-,True,0.48763537406921387
2,p,m,-,False,0.5773282051086426
2,q,-,-,True,0.893359899520874
2,c,-,-,True,0.5793285369873047
2,l,-,-,True,0.5655355453491211
2,w,-,-,True,0.4877283573150635
2,q,-,-,True,0.48998212814331055
2,c,-,-,True,0.49466443061828613
2,q,m,-,False,0.5099811553955078
2,l,-,-,True,0.5342991352081299
3,f,-,-,True,0.4794189929962158
3,k,-,-,True,0.46777892112731934
3,r,-,-,True,0.8978168964385986
3,q,-,-,True,0.9238944053649902
3,g,-,-,True,1.4080314636230469
3,x,-,-,True,0.48204493522644043
3,c,-,-,True,0.4776618480682373
3,x,m,-,False,0.4567720890045166
3,c,m,m,True,0.4595832824707031
3,j,-,-,True,0.5108895301818848
3,c,m,-,False,0.47829270362854004
3,j,m,-,False,0.9513759613037109
3,r,-,-,True,0.5439937114715576
3,v,-,-,True,0.4771420955657959
3,b,-,-,True,0.48094892501831055
3,v,m,-,False,0.4778625965118408
3,b,m,-,False,0.6007330417633057
3,y,-,-,True,0.591740608215332
3,g,-,-,True,0.47102832794189453
3,y,m,-,False,0.4668593406677246
3,r,-,-,True,0.5271127223968506
3,y,m,-,False,0.9440393447875977
3,c,-,-,True,0.49631237983703613
3,n,-,-,True,0.49124646186828613
4,c,-,-,True,1.0650136470794678
4,p,-,-,True,0.5766270160675049
4,c,m,-,False,0.4783928394317627
4,s,-,-,True,0.6774947643280029
4,y,-,-,True,0.6291062831878662
4,k,-,-,True,0.470780611038208
4,g,-,-,True,0.5088057518005371
4,k,m,-,False,0.5795266628265381
4,g,m,m,True,0.497117280960083
4,k,m,-,False,0.5011498928070068
4,k,-,m,False,0.9387907981872559
4,y,-,-,True,0.5005679130554199
4,k,m,-,False,0.5121448040008545
4,y,m,m,True,0.9692673683166504
4,b,-,-,True,0.4873044490814209
4,q,-,-,True,0.5924217700958252
4,w,-,-,True,0.4873204231262207
4,n,-,-,True,0.5096786022186279
4,x,-,-,True,0.9183697700500488
4,r,-,-,True,0.9563889503479004
4,x,m,-,False,0.5002062320709229
4,h,-,-,True,0.602637767791748
4,t,-,-,True,0.5550129413604736
4,h,m,-,False,0.976874828338623
5,w,-,-,True,0.9992313385009766
5,z,-,-,True,0.49858999252319336
5,w,m,-,False,0.624335527420044
5,z,m,m,True,0.48714709281921387
5,j,-,-,True,0.524479866027832
5,g,-,-,True,0.9723954200744629
5,w,-,-,True,0.4860844612121582
5,s,-,-,True,0.5054466724395752
5,h,-,-,True,0.6226792335510254
5,s,m,m,True,0.5710258483886719
5,n,-,-,True,0.5988078117370605
5,b,-,-,True,0.5698168277740479
5,c,-,-,True,0.608668327331543
5,q,-,-,True,0.5119667053222656
5,c,m,m,True,0.58498215675354
5,l,-,-,True,0.49935030937194824
5,f,-,-,True,0.6018822193145752
5,g,-,m,False,0.5039422512054443
5,f,m,-,False,0.653416633605957
5,k,-,-,True,0.49185991287231445
5,f,m,-,False,0.628537654876709
5,k,m,-,False,0.5751440525054932
5,f,m,-,False,0.6038129329681396
5,n,-,-,True,0.9663691520690918
6,j,-,-,True,0.9456734657287598
6,b,-,-,True,0.5673696994781494
6,j,m,-,False,0.5180799961090088
6,r,-,-,True,0.5017333030700684
6,t,-,-,True,0.5630629062652588
6,y,-,-,True,0.9707918167114258
6,n,-,-,True,0.5317058563232422
6,y,m,-,False,0.9629812240600586
6,n,m,-,False,0.7710497379302979
6,s,-,-,True,0.62811279296875
6,s,-,-,True,0.535569429397583
6,h,-,-,True,0.5197000503540039
6,s,m,m,True,0.6317579746246338
6,b,-,-,True,0.934640645980835
6,s,m,-,False,0.5428953170776367
6,t,-,-,True,0.6155378818511963
6,s,m,-,False,0.6701688766479492
6,c,-,-,True,0.9886965751647949
6,r,-,-,True,0.534066915512085
6,g,-,-,True,1.5092418193817139
6,g,-,m,False,0.5502150058746338
6,s,-,-,True,0.5364620685577393
6,g,m,-,False,0.5411498546600342
6,s,m,-,False,0.5418846607208252
7,y,-,-,True,2.6029248237609863
7,q,-,-,True,0.4420149326324463
7,g,-,-,True,0.46250224113464355
7,r,-,-,True,0.4563877582550049
7,g,m,-,False,0.5278580188751221
7,s,-,-,True,0.46424221992492676
7,k,-,-,True,0.4528970718383789
7,s,m,m,True,0.453125
7,k,m,-,False,0.9338374137878418
7,c,-,-,True,0.4627974033355713
7,k,m,m,True,0.48171019554138184
7,t,-,-,True,0.6044588088989258
7,b,-,-,True,0.46538567543029785
7,f,-,-,True,0.9105825424194336
7,w,-,-,True,0.4785332679748535
7,y,-,m,False,0.9126989841461182
7,w,m,-,False,0.45342111587524414
7,s,-,-,True,1.466066837310791
7,w,m,-,False,0.5805935859680176
7,s,m,-,False,0.5893204212188721
7,c,-,-,True,0.5119154453277588
7,s,m,m,True,0.5416617393493652
7,q,-,-,True,0.5036060810089111
7,x,-,-,True,0.5926780700683594
8,w,-,-,True,0.9207785129547119
8,k,-,-,True,0.7336363792419434
8,t,-,-,True,0.6162717342376709
8,n,-,-,True,0.6139430999755859
8,c,-,-,True,0.49211931228637695
8,f,-,-,True,1.4258899688720703
8,b,-,-,True,0.5149385929107666
8,p,-,-,True,0.5905311107635498
8,r,-,-,True,0.5127053260803223
8,w,-,-,True,0.5186665058135986
8,q,-,-,True,0.597926139831543
8,t,-,m,False,0.49312853813171387
8,q,m,-,False,0.518096923828125
8,t,m,-,False,0.6324150562286377
8,q,m,m,True,0.5185999870300293
8,t,m,m,True,0.5388209819793701
8,q,m,m,True,0.6223764419555664
8,t,m,m,True,0.524406909942627
8,q,m,m,True,1.2130944728851318
8,t,m,m,True,0.5405151844024658
8,r,-,-,True,0.6439352035522461
8,p,-,-,True,0.5280921459197998
8,g,-,-,True,0.5165328979492188
8,f,-,-,True,0.5158355236053467
9,g,-,-,True,1.0852460861206055
9,z,-,-,True,0.5717642307281494
9,k,-,-,True,0.4832944869995117
9,l,-,-,True,0.47500085830688477
9,f,-,-,True,0.4812455177307129
9,l,m,-,False,0.5230967998504639
9,n,-,-,True,0.5877294540405273
9,r,-,-,True,0.5294380187988281
9,n,m,m,True,0.4796161651611328
9,g,-,-,True,0.5129327774047852
9,g,-,m,False,0.601466178894043
9,g,m,-,False,0.5006792545318604
9,c,-,-,True,0.50789475440979
9,z,-,-,True,0.5053286552429199
9,r,-,-,True,0.593076229095459
9,z,m,-,False,0.490678071975708
9,h,-,-,True,0.553586483001709
9,z,m,-,False,0.5505387783050537
9,f,-,-,True,0.5290553569793701
9,z,m,-,False,0.5044457912445068
9,f,m,-,False,0.781548023223877
9,z,m,-,False,0.5183470249176025
9,d,-,-,True,0.5601806640625
9,k,-,-,True,0.5226950645446777
10,b,-,-,True,0.85162353515625
10,d,-,-,True,0.6812622547149658
10,b,m,-,False,0.5450470447540283
10,b,-,m,False,0.47451281547546387
10,d,-,-,True,0.5666673183441162
10,g,-,-,True,0.9251987934112549
10,b,-,-,True,0.7617936134338379
10,g,m,-,False,0.9752237796783447
10,b,m,-,False,0.4590487480163574
10,g,m,-,False,0.7423014640808105
10,w,-,-,True,0.5923182964324951
10,g,m,-,False,0.577033281326294
10,p,-,-,True,0.500150203704834
10,b,-,-,True,0.4779195785522461
10,n,-,-,True,0.5131804943084717
10,v,-,-,True,0.5406835079193115
10,d,-,-,True,0.9001827239990234
10,v,m,-,False,0.48219752311706543
10,b,-,-,True,0.5142662525177002
10,v,m,-,False,0.5671288967132568
10,y,-,-,True,0.6112186908721924
10,n,-,-,True,0.9078691005706787
10,y,m,-,False,0.6318209171295166
10,t,-,-,True,0.6162359714508057
11,q,-,-,True,1.9875774383544922
11,s,-,-,True,0.5973107814788818
11,q,m,-,False,0.5663402080535889
11,s,m,m,True,0.9454512596130371
11,n,-,-,True,1.4187250137329102
11,v,-,-,True,0.467881441116333
11,n,m,-,False,0.5906484127044678
11,v,m,-,False,0.6088917255401611
11,n,m,-,False,0.5490407943725586
11,r,-,-,True,0.5017738342285156
11,b,-,-,True,0.4711923599243164
11,h,-,-,True,0.5223000049591064
11,y,-,-,True,0.6002883911132812
11,h,m,-,False,0.4902210235595703
11,b,-,-,True,0.47801733016967773
11,l,-,-,True,0.5101356506347656
11,b,m,-,False,0.592477560043335
11,w,-,-,True,0.5239417552947998
11,z,-,-,True,0.5886740684509277
11,r,-,-,True,1.4309446811676025
11,z,m,-,False,1.4513521194458008
11,p,-,-,True,0.5125260353088379
11,f,-,-,True,0.5382416248321533
11,c,-,-,True,0.5055668354034424
12,v,-,-,True,2.095264196395874
12,y,-,-,True,0.566286563873291
12,s,-,-,True,0.4908783435821533
12,d,-,-,True,0.9154675006866455
12,n,-,-,True,0.47840261459350586
12,d,m,-,False,0.5064365863800049
12,g,-,-,True,0.5658261775970459
12,v,-,-,True,0.471560001373291
12,g,m,-,False,0.4776599407196045
12,v,m,m,True,0.5966107845306396
12,j,-,-,True,0.5961918830871582
12,v,m,-,False,0.4664955139160156
12,h,-,-,True,0.46671485900878906
12,c,-,-,True,0.7781288623809814
12,j,-,-,True,0.5799136161804199
12,v,-,-,True,0.5801742076873779
12,q,-,-,True,0.46671414375305176
12,v,m,-,False,0.5008909702301025
12,q,m,-,False,0.6085672378540039
12,b,-,-,True,0.5074803829193115
12,q,m,-,False,0.5012609958648682
12,s,-,-,True,0.5825827121734619
12,q,m,-,False,0.49234962463378906
12,h,-,-,True,1.0174343585968018
13,l,-,-,True,1.0397992134094238
13,z,-,-,True,0.48102760314941406
13,l,m,-,False,0.49933862686157227
13,z,m,-,False,0.578615665435791
13,x,-,-,True,0.4828479290008545
13,c,-,-,True,0.6190385818481445
13,x,m,-,False,0.5993390083312988
13,z,-,m,False,0.6035861968994141
13,x,m,-,False,0.7024664878845215
13,v,-,-,True,0.4915742874145508
13,z,-,-,True,0.5882890224456787
13,v,m,-,False,0.4941849708557129
13,z,m,m,True,0.5004754066467285
13,q,-,-,True,0.6120083332061768
13,z,m,-,False,0.5334904193878174
13,s,-,-,True,1.4624247550964355
13,x,-,-,True,0.5305736064910889
13,d,-,-,True,0.603489875793457
13,g,-,-,True,0.5886142253875732
13,k,-,-,True,0.6348628997802734
13,r,-,-,True,0.5265731811523438
13,b,-,-,True,0.5216662883758545
13,r,m,-,False,0.5077567100524902
13,j,-,-,True,0.5028064250946045
14,r,-,-,True,0.9002368450164795
14,h,-,-,True,0.5001857280731201
14,r,m,-,False,0.6841533184051514
14,h,m,-,False,0.440920352935791
14,c,-,-,True,0.5948367118835449
14,h,m,-,False,0.6446511745452881
14,p,-,-,True,0.530264139175415
14,h,m,m,True,0.45079779624938965
14,w,-,-,True,0.5778989791870117
14,c,-,-,True,0.5602102279663086
14,w,m,-,False,0.9474983215332031
14,t,-,-,True,1.4114890098571777
14,w,m,-,False,0.48816776275634766
14,c,-,-,True,0.46684789657592773
14,j,-,-,True,0.5423629283905029
14,c,m,-,False,0.47771525382995605
14,q,-,-,True,0.47617077827453613
14,f,-,-,True,0.5292558670043945
14,w,-,-,True,0.4540858268737793
14,r,-,-,True,0.6691443920135498
14,w,m,-,False,0.5156402587890625
14,y,-,-,True,0.5175416469573975
14,d,-,-,True,0.586512565612793
14,s,-,-,True,0.5995357036590576
15,d,-,-,True,0.6210989952087402
15,r,-,-,True,0.46146273612976074
15,d,m,-,False,0.6596465110778809
15,n,-,-,True,0.4513857364654541
15,b,-,-,True,0.9100494384765625
15,n,m,-,False,0.9203345775604248
15,b,m,-,False,0.9526193141937256
15,b,-,m,False,0.9472734928131104
15,n,-,-,True,0.564507246017456
15,v,-,-,True,0.47597694396972656
15,n,m,-,False,0.4687671661376953
15,r,-,-,True,0.8657619953155518
15,k,-,-,True,0.47971177101135254
15,d,-,-,True,0.5952417850494385
15,d,-,m,False,0.5692498683929443
15,l,-,-,True,0.47580718994140625
15,c,-,-,True,0.4563934803009033
15,l,m,-,False,0.5599167346954346
15,b,-,-,True,0.5749130249023438
15,s,-,-,True,1.439810037612915
15,r,-,-,True,1.436772346496582
15,s,m,-,False,0.6056530475616455
15,r,m,-,False,0.574115514755249
15,s,m,-,False,0.5816516876220703
16,x,-,-,True,0.47514939308166504
16,c,-,-,True,0.4486579895019531
16,q,-,-,True,0.46314096450805664
16,c,m,-,False,0.45764827728271484
16,j,-,-,True,0.45501255989074707
16,n,-,-,True,0.5555930137634277
16,j,m,-,False,0.47960400581359863
16,n,m,m,True,0.5590758323669434
16,q,-,-,True,0.4733867645263672
16,b,-,-,True,0.5764219760894775
16,d,-,-,True,0.49038028717041016
16,p,-,-,True,0.44963502883911133
16,q,-,m,False,0.579869270324707
16,c,-,-,True,0.5584697723388672
16,w,-,-,True,0.6100614070892334
16,t,-,-,True,1.4693472385406494
16,w,m,-,False,0.48214125633239746
16,t,m,-,False,0.6109769344329834
16,b,-,m,False,0.5750291347503662
16,j,-,-,True,0.6106326580047607
16,b,m,-,False,0.9980456829071045
16,j,m,m,True,0.5864660739898682
16,w,-,-,True,0.48773980140686035
16,j,m,-,False,0.4818851947784424
17,l,-,-,True,0.9818761348724365
17,y,-,-,True,0.47508764266967773
17,k,-,-,True,0.5736656188964844
17,y,m,-,False,0.5857748985290527
17,k,m,-,False,0.49643540382385254
17,y,m,-,False,0.5882470607757568
17,z,-,-,True,0.47437310218811035
17,y,m,-,False,0.5910210609436035
17,j,-,-,True,0.48230457305908203
17,j,-,m,False,0.5924997329711914
17,j,m,-,False,0.4927639961242676
17,w,-,-,True,0.48387885093688965
17,y,-,-,True,0.5668044090270996
17,f,-,-,True,0.5119140148162842
17,z,-,-,True,0.5739986896514893
17,g,-,-,True,0.5251553058624268
17,z,m,-,False,1.4992280006408691
17,j,-,-,True,0.6149716377258301
17,z,m,-,False,0.4863922595977783
17,j,m,-,False,0.5103399753570557
17,f,-,-,True,0.9485347270965576
17,y,-,-,True,0.5110092163085938
17,y,-,m,False,0.5113656520843506
17,j,-,-,True,0.9625141620635986
18,q,-,-,True,0.535675048828125
18,w,-,-,True,0.5279414653778076
18,q,m,-,False,0.454038143157959
18,p,-,-,True,0.47019195556640625
18,z,-,-,True,0.4745910167694092
18,p,m,-,False,0.49750781059265137
18,z,m,-,False,0.4737215042114258
18,p,m,m,True,0.49690961837768555
18,g,-,-,True,0.9455876350402832
18,c,-,-,True,0.47423481941223145
18,q,-,-,True,0.707127571105957
18,c,m,-,False,0.5903632640838623
18,j,-,-,True,0.5175464153289795
18,x,-,-,True,0.5184929370880127
18,d,-,-,True,0.5801630020141602
18,n,-,-,True,0.5419654846191406
18,w,-,-,True,0.5367538928985596
18,n,m,-,False,0.6851701736450195
18,h,-,-,True,0.7811298370361328
18,n,m,-,False,0.48797011375427246
18,h,m,-,False,0.5252888202667236
18,h,-,m,False,0.5981185436248779
18,g,-,-,True,0.5401575565338135
18,f,-,-,True,0.49463677406311035
19,y,-,-,True,0.6695613861083984
19,h,-,-,True,0.480025053024292
19,z,-,-,True,0.49181365966796875
19,f,-,-,True,0.5925493240356445
19,q,-,-,True,0.6836423873901367
19,p,-,-,True,0.5005357265472412
19,h,-,-,True,0.5161261558532715
19,r,-,-,True,1.5129599571228027
19,r,-,m,False,0.5719530582427979
19,r,m,-,False,0.4714012145996094
19,r,m,m,True,0.6139864921569824
19,r,m,m,True,0.9556069374084473
19,x,-,-,True,0.9400179386138916
19,r,m,-,False,0.7549295425415039
19,c,-,-,True,0.6459207534790039
19,v,-,-,True,0.5514919757843018
19,c,m,-,False,0.5669338703155518
19,l,-,-,True,0.9969949722290039
19,h,-,m,False,0.5489141941070557
19,l,m,-,False,0.90730881690979
19,h,m,m,True,0.7452056407928467
19,d,-,-,True,0.5530719757080078
19,r,-,-,True,0.6423168182373047
19,d,m,-,False,0.7246732711791992
20,t,-,-,True,0.6145491600036621
20,w,-,-,True,0.5359461307525635
20,d,-,-,True,0.5202672481536865
20,j,-,-,True,0.6194667816162109
20,r,-,-,True,0.5623323917388916
20,t,-,-,True,0.5595154762268066
20,r,m,-,False,0.5249414443969727
20,t,m,-,False,0.6149353981018066
20,v,-,-,True,0.7602181434631348
20,h,-,-,True,0.7094833850860596
20,v,m,-,False,0.5681347846984863
20,g,-,-,True,0.553431510925293
20,v,m,-,False,0.5664567947387695
20,d,-,-,True,0.5508959293365479
20,v,m,-,False,0.5551812648773193
20,q,-,-,True,0.5885095596313477
20,f,-,-,True,0.659740686416626
20,q,m,-,False,0.6508045196533203
20,w,-,-,True,0.9822936058044434
20,q,m,-,False,1.0488195419311523
20,w,m,-,False,0.5879974365234375
20,n,-,-,True,0.570054292678833
20,c,-,-,True,0.6830496788024902
20,c,-,m,False,0.8551590442657471
21,d,-,-,True,0.6548030376434326
21,w,-,-,True,0.5847320556640625
21,d,-,-,True,0.5186977386474609
21,c,-,-,True,0.8114211559295654
21,h,-,-,True,0.6335189342498779
21,c,m,-,False,1.5471231937408447
21,r,-,-,True,0.5526769161224365
21,n,-,-,True,0.4787790775299072
21,r,m,-,False,0.4881865978240967
21,c,-,m,False,0.9871764183044434
21,r,m,-,False,0.517359733581543
21,x,-,-,True,0.5454678535461426
21,q,-,-,True,0.6454081535339355
21,x,m,m,True,0.6088228225708008
21,q,m,-,False,0.6368680000305176
21,k,-,-,True,0.5191802978515625
21,f,-,-,True,0.5404531955718994
21,k,m,-,False,0.6275827884674072
21,n,-,-,True,0.5256743431091309
21,c,-,m,False,1.0017049312591553
21,n,m,-,False,0.5641872882843018
21,c,m,m,True,0.8141312599182129
21,s,-,-,True,1.0326011180877686
21,b,-,-,True,0.51064133644104
22,z,-,-,True,2.016864776611328
22,j,-,-,True,0.4968109130859375
22,b,-,-,True,0.5501744747161865
22,j,m,-,False,0.5807168483734131
22,b,m,m,True,0.43691420555114746
22,w,-,-,True,0.4838724136352539
22,b,m,m,True,0.5034801959991455
22,h,-,-,True,0.5716302394866943
22,w,-,-,True,0.6658751964569092
22,h,m,m,True,0.48569726943969727
22,b,-,m,False,0.4869251251220703
22,t,-,-,True,0.585857629776001
22,d,-,-,True,0.5058319568634033
22,t,m,m,True,1.4223713874816895
22,p,-,-,True,0.5979397296905518
22,j,-,-,True,0.47844481468200684
22,p,m,-,False,0.5148055553436279
22,j,m,-,False,0.6060202121734619
22,f,-,-,True,0.6394250392913818
22,j,m,m,True,0.5215003490447998
22,g,-,-,True,0.6640522480010986
22,r,-,-,True,0.6352090835571289
22,w,-,-,True,1.193437099456787
22,w,-,m,False,0.6564254760742188
23,n,-,-,True,0.5715999603271484
23,k,-,-,True,0.46076440811157227
23,n,m,-,False,0.47031307220458984
23,r,-,-,True,0.6503767967224121
23,s,-,-,True,0.4612116813659668
23,d,-,-,True,0.4514932632446289
23,s,m,m,True,0.5564734935760498
23,v,-,-,True,0.5197269916534424
23,y,-,-,True,0.6152691841125488
23,v,m,-,False,0.4610307216644287
23,y,m,-,False,0.936647891998291
23,k,-,-,True,0.4739799499511719
23,n,-,-,True,0.5734329223632812
23,k,m,m,True,0.48339176177978516
23,l,-,-,True,0.6820311546325684
23,k,m,m,True,0.913001298904419
23,n,-,-,True,0.4928460121154785
23,c,-,-,True,0.5720691680908203
23,j,-,-,True,0.5395638942718506
23,c,m,-,False,0.48007702827453613
23,j,m,-,False,0.5572648048400879
23,k,-,m,False,0.4864959716796875
23,s,-,-,True,0.4800436496734619
23,g,-,-,True,0.5106484889984131
24,p,-,-,True,0.6131317615509033
24,h,-,-,True,0.5527400970458984
24,p,m,-,False,0.458906888961792
24,h,m,-,False,0.5397858619689941
24,c,-,-,True,0.5578863620758057
24,t,-,-,True,0.4459359645843506
24,c,m,m,True,0.5100984573364258
24,t,m,-,False,0.5758991241455078
24,y,-,-,True,0.46513867378234863
24,t,m,-,False,0.5833456516265869
24,b,-,-,True,1.4326543807983398
24,y,-,m,False,0.5701630115509033
24,c,-,-,True,0.49297642707824707
24,y,m,-,False,0.48877620697021484
24,c,m,-,False,0.5938193798065186
24,r,-,-,True,0.47007203102111816
24,t,-,-,True,0.4608323574066162
24,g,-,-,True,0.48346519470214844
24,t,m,-,False,0.6383132934570312
24,h,-,-,True,0.6736361980438232
24,f,-,-,True,0.5069754123687744
24,g,-,m,False,0.5183429718017578
24,x,-,-,True,0.5220394134521484
24,k,-,-,True,0.4910159111022949
25,x,-,-,True,1.0562994480133057
25,r,-,-,True,0.5393514633178711
25,c,-,-,True,0.6395480632781982
25,l,-,-,True,0.4733445644378662
25,c,m,-,False,0.470273494720459
25,l,m,-,False,0.9368762969970703
25,r,-,-,True,0.5559792518615723
25,j,-,-,True,0.4870879650115967
25,g,-,-,True,0.4647092819213867
25,j,m,-,False,1.5929980278015137
25,g,m,-,False,0.5757668018341064
25,j,m,m,True,0.6782541275024414
25,n,-,-,True,0.515981912612915
25,n,-,-,True,0.5421285629272461
25,n,m,-,False,0.5302436351776123
25,t,-,-,True,0.6191434860229492
25,n,m,-,False,0.47131824493408203
25,f,-,-,True,0.6054990291595459
25,x,-,-,True,0.5910289287567139
25,z,-,-,True,0.4936051368713379
25,w,-,-,True,0.9595410823822021
25,k,-,-,True,0.5409257411956787
25,s,-,-,True,0.50211501121521
25,k,m,-,False,0.5330774784088135
26,j,-,-,True,0.5927212238311768
26,f,-,-,True,0.4605271816253662
26,v,-,-,True,0.9352984428405762
26,k,-,-,True,0.593817949295044
26,p,-,-,True,0.4701406955718994
26,p,-,-,True,0.5685720443725586
26,s,-,-,True,0.5965690612792969
26,p,m,m,True,0.4754502773284912
26,w,-,-,True,1.4454715251922607
26,p,m,m,True,0.4921731948852539
26,n,-,-,True,0.9007682800292969
26,l,-,-,True,0.5744822025299072
26,p,-,m,False,0.4865708351135254
26,l,m,-,False,0.5068283081054688
26,l,-,-,True,0.4792361259460449
26,w,-,-,True,0.5878055095672607
26,l,m,-,False,0.5666611194610596
26,w,m,-,False,0.5974292755126953
26,l,m,-,False,0.5786635875701904
26,t,-,-,True,0.48186635971069336
26,f,-,m,False,0.4998650550842285
26,t,m,-,False,0.4941847324371338
26,f,m,-,False,0.5582234859466553
26,c,-,-,True,0.5412204265594482
27,l,-,-,True,1.3264429569244385
27,j,-,-,True,0.5025482177734375
27,b,-,-,True,0.4686763286590576
27,r,-,-,True,0.5755772590637207
27,q,-,-,True,0.680426836013794
27,r,m,-,False,0.5078737735748291
27,q,m,m,True,0.49762988090515137
27,r,m,-,False,0.5943729877471924
27,r,-,m,False,0.59212327003479
27,j,-,-,True,0.7730543613433838
27,c,-,-,True,0.5259716510772705
27,c,-,m,False,0.5019240379333496
27,d,-,-,True,0.5816051959991455
27,q,-,-,True,0.5447313785552979
27,d,m,-,False,0.5361919403076172
27,s,-,-,True,0.6760680675506592
27,d,m,-,False,0.5383069515228271
27,t,-,-,True,0.5367841720581055
27,d,m,-,False,0.5163788795471191
27,n,-,-,True,0.5540013313293457
27,y,-,-,True,0.5402660369873047
27,g,-,-,True,0.5557687282562256
27,y,m,-,False,0.5503253936767578
27,g,m,-,False,0.8183560371398926
28,h,-,-,True,0.7814993858337402
28,f,-,-,True,0.5902760028839111
28,h,m,-,False,0.5802645683288574
28,t,-,-,True,0.4984421730041504
28,h,m,-,False,0.6306636333465576
28,c,-,-,True,0.4835989475250244
28,h,m,-,False,0.6346371173858643
28,c,m,-,False,0.5275721549987793
28,p,-,-,True,0.6155796051025391
28,d,-,-,True,0.5373959541320801
28,s,-,-,True,0.5201196670532227
28,d,m,-,False,0.5182244777679443
28,z,-,-,True,0.6162233352661133
28,d,m,-,False,0.55483078956604
28,z,m,m,True,0.7449257373809814
28,f,-,-,True,0.7169952392578125
28,q,-,-,True,1.0110056400299072
28,q,-,-,True,0.6530501842498779
28,w,-,-,True,0.5430057048797607
28,x,-,-,True,0.6242506504058838
28,w,m,-,False,0.6022827625274658
28,k,-,-,True,0.5273416042327881
28,b,-,-,True,0.5395290851593018
28,f,-,-,True,0.629267692565918
29,b,-,-,True,0.48862123489379883
29,g,-,-,True,0.5951187610626221
29,w,-,-,True,0.5023417472839355
29,g,m,-,False,0.5670716762542725
29,w,m,-,False,0.7127771377563477
29,d,-,-,True,0.5081260204315186
29,r,-,-,True,0.595184326171875
29,n,-,-,True,0.5745768547058105
29,g,-,-,True,0.6046831607818604
29,n,m,-,False,0.5515754222869873
29,g,m,m,True,0.5313341617584229
29,j,-,-,True,0.5168466567993164
29,z,-,-,True,0.4900479316711426
29,j,m,-,False,0.5107026100158691
29,t,-,-,True,0.5430598258972168
29,l,-,-,True,0.5166914463043213
29,t,m,-,False,0.5235934257507324
29,t,-,m,False,0.6405377388000488
29,y,-,-,True,0.5932085514068604
29,v,-,-,True,0.5263221263885498
29,b,-,m,False,0.6441304683685303
29,v,m,-,False,0.5679631233215332
29,b,m,-,False,0.5015552043914795
29,d,-,-,True,0.5358026027679443
30,j,-,-,True,1.0912330150604248
30,b,-,-,True,0.6850476264953613
30,k,-,-,True,0.45064544677734375
30,b,m,-,False,0.44803595542907715
30,g,-,-,True,0.46248769760131836
30,b,m,-,False,0.5725874900817871
30,g,m,-,False,0.4699239730834961
30,b,m,m,True,0.47180628776550293
30,c,-,-,True,0.47368478775024414
30,b,m,-,False,0.4967632293701172
30,n,-,-,True,0.48595237731933594
30,g,-,-,True,0.4845285415649414
30,g,-,m,False,0.4813728332519531
30,b,-,m,False,1.003150224685669
30,k,-,-,True,0.508760929107666
30,b,m,m,True,0.9407751560211182
30,k,m,-,False,0.4875907897949219
30,v,-,-,True,0.9970519542694092
30,y,-,-,True,0.9233441352844238
30,t,-,-,True,0.46558141708374023
30,l,-,-,True,0.9453165531158447
30,s,-,-,True,1.3834319114685059
30,j,-,-,True,0.614112138748169
30,s,m,-,False,0.7971293926239014
31,z,-,-,True,0.932227373123169
31,c,-,-,True,0.5625026226043701
31,y,-,-,True,0.9196047782897949
31,t,-,-,True,0.44856739044189453
31,k,-,-,True,0.4858105182647705
31,j,-,-,True,0.47331953048706055
31,s,-,-,True,0.6964259147644043
31,j,m,-,False,0.9931044578552246
31,s,m,m,True,0.4339442253112793
31,n,-,-,True,0.47050929069519043
31,l,-,-,True,0.558884859085083
31,s,-,-,True,0.6156151294708252
31,k,-,-,True,0.478351354598999
31,s,m,m,True,0.5550863742828369
31,k,m,-,False,0.6271414756774902
31,d,-,-,True,0.49166083335876465
31,k,m,-,False,0.5660550594329834
31,r,-,-,True,0.4710235595703125
31,k,m,-,False,0.9467582702636719
31,z,-,-,True,0.49492955207824707
31,k,m,-,False,0.5078287124633789
31,z,m,-,False,0.5133681297302246
31,p,-,-,True,0.5780744552612305
31,n,-,m,False,0.8953123092651367
32,z,-,-,True,1.3507773876190186
32,s,-,-,True,0.5400030612945557
32,z,m,-,False,0.6078040599822998
32,d,-,-,True,0.4897451400756836
32,y,-,-,True,0.4576869010925293
32,l,-,-,True,0.44590187072753906
32,y,m,-,False,0.48592090606689453
32,q,-,-,True,0.46297740936279297
32,y,m,m,True,0.4705545902252197
32,q,m,-,False,0.47278594970703125
32,y,m,-,False,0.48145198822021484
32,s,-,-,True,0.447265625
32,k,-,-,True,0.4559752941131592
32,l,-,-,True,1.4574120044708252
32,k,m,-,False,0.46822547912597656
32,p,-,-,True,0.581350564956665
32,p,-,m,False,0.4795393943786621
32,p,m,-,False,0.6065709590911865
32,q,-,-,True,0.5058419704437256
32,b,-,-,True,0.46033191680908203
32,h,-,-,True,0.560504674911499
32,b,m,-,False,0.596580982208252
32,n,-,-,True,0.469374418258667
32,v,-,-,True,0.4853482246398926
33,g,-,-,True,0.9520292282104492
33,d,-,-,True,0.885432243347168
33,t,-,-,True,0.5415387153625488
33,p,-,-,True,0.5573482513427734
33,x,-,-,True,0.8359584808349609
33,p,m,-,False,0.4982938766479492
33,p,-,m,False,0.5750167369842529
33,t,-,-,True,0.9396693706512451
33,b,-,-,True,1.4449779987335205
33,s,-,-,True,0.5032901763916016
33,b,m,-,False,0.7466742992401123
33,p,-,m,False,0.49959516525268555
33,b,m,-,False,0.7489209175109863
33,p,m,m,True,0.5582420825958252
33,w,-,-,True,0.489091157913208
33,r,-,-,True,0.49115490913391113
33,w,m,-,False,0.58203125
33,v,-,-,True,0.5390334129333496
33,w,m,-,False,0.5407524108886719
33,x,-,-,True,0.6049056053161621
33,l,-,-,True,0.5804626941680908
33,x,m,-,False,0.6085414886474609
33,l,m,-,False,0.5864875316619873
33,v,-,-,True,1.4322278499603271
34,k,-,-,True,0.4972696304321289
34,g,-,-,True,0.6172301769256592
34,f,-,-,True,0.4473721981048584
34,t,-,-,True,0.5547161102294922
34,b,-,-,True,0.4693624973297119
34,c,-,-,True,0.4983482360839844
34,b,m,-,False,0.5510847568511963
34,k,-,m,False,0.571181058883667
34,b,m,-,False,0.5775811672210693
34,n,-,-,True,0.5858485698699951
34,y,-,-,True,0.46321749687194824
34,n,m,-,False,0.931765079498291
34,f,-,m,False,0.46433091163635254
34,j,-,-,True,0.47759294509887695
34,v,-,-,True,0.904454231262207
34,t,-,-,True,0.5810775756835938
34,v,m,-,False,0.514824390411377
34,f,-,m,False,0.4810147285461426
34,y,-,-,True,0.6132752895355225
34,f,m,m,True,0.6589534282684326
34,y,m,-,False,1.0187299251556396
34,k,-,-,True,0.5010793209075928
34,y,m,-,False,0.5535638332366943
34,k,m,-,False,0.5032181739807129
35,h,-,-,True,0.49178028106689453
35,z,-,-,True,0.45171546936035156
35,h,m,-,False,0.4927334785461426
35,z,m,-,False,0.4795045852661133
35,w,-,-,True,0.5797231197357178
35,z,m,-,False,0.494781494140625
35,r,-,-,True,0.9124319553375244
35,z,m,-,False,0.4692680835723877
35,n,-,-,True,0.5796387195587158
35,r,-,-,True,0.47609400749206543
35,t,-,-,True,0.5930089950561523
35,v,-,-,True,0.5624475479125977
35,f,-,-,True,0.5474081039428711
35,v,m,m,True,0.49498438835144043
35,t,-,-,True,0.46460652351379395
35,h,-,-,True,0.48279762268066406
35,b,-,-,True,0.49870967864990234
35,h,m,-,False,0.5330290794372559
35,t,-,-,True,0.6296837329864502
35,h,m,m,True,0.6462736129760742
35,t,m,-,False,0.48195910453796387
35,s,-,-,True,0.9830992221832275
35,q,-,-,True,0.4680323600769043
35,x,-,-,True,0.4867713451385498
36,f,-,-,True,1.2598521709442139
36,p,-,-,True,0.515826940536499
36,f,m,-,False,0.5292234420776367
36,j,-,-,True,0.5267794132232666
36,q,-,-,True,0.6052515506744385
36,s,-,-,True,0.525702714920044
36,v,-,-,True,0.5265769958496094
36,v,-,m,False,0.5293009281158447
36,t,-,-,True,0.5019381046295166
36,g,-,-,True,0.5046687126159668
36,f,-,m,False,0.5649745464324951
36,g,m,-,False,0.675736665725708
36,f,m,-,False,0.5549240112304688
36,g,m,m,True,1.42569899559021
36,h,-,-,True,0.9837014675140381
36,x,-,-,True,0.6381933689117432
36,h,m,-,False,0.5405261516571045
36,v,-,-,True,0.5525915622711182
36,w,-,-,True,0.6522665023803711
36,v,m,m,True,0.5478692054748535
36,w,m,-,False,0.5629236698150635
36,j,-,-,True,0.6505138874053955
36,w,m,-,False,0.6290085315704346
36,s,-,-,True,1.0067057609558105
37,s,-,-,True,0.5486063957214355
37,q,-,-,True,0.5458698272705078
37,s,-,-,True,0.7358763217926025
37,q,m,-,False,0.5162334442138672
37,k,-,-,True,0.5224688053131104
37,x,-,-,True,0.5034568309783936
37,c,-,-,True,0.5835187435150146
37,p,-,-,True,0.5543394088745117
37,c,m,m,True,0.5596163272857666
37,d,-,-,True,0.5557200908660889
37,c,m,-,False,0.6387896537780762
37,t,-,-,True,0.5365116596221924
37,j,-,-,True,1.5140759944915771
37,t,m,-,False,0.6314418315887451
37,p,-,-,True,0.5300517082214355
37,k,-,m,False,0.537346601486206
37,p,m,-,False,0.5612406730651855
37,k,m,-,False,0.5768947601318359
37,c,-,-,True,0.5387556552886963
37,v,-,-,True,0.6385962963104248
37,c,m,-,False,0.5287752151489258
37,v,m,-,False,0.6227493286132812
37,n,-,-,True,0.6084647178649902
37,l,-,-,True,0.5735085010528564
38,h,-,-,True,0.4789605140686035
38,n,-,-,True,0.5361456871032715
38,h,m,-,False,0.608104944229126
38,n,m,-,False,0.5527231693267822
38,h,m,m,True,0.6151652336120605
38,w,-,-,True,0.5397570133209229
38,n,-,-,True,0.6638567447662354
38,w,m,-,False,0.5009219646453857
38,j,-,-,True,0.5283546447753906
38,s,-,-,True,0.5807929039001465
38,p,-,-,True,0.6801724433898926
38,n,-,m,False,0.5095171928405762
38,p,m,-,False,0.592750072479248
38,x,-,-,True,0.49376368522644043
38,k,-,-,True,0.4876594543457031
38,x,m,-,False,0.569631814956665
38,k,m,-,False,0.5143282413482666
38,d,-,-,True,0.5161242485046387
38,k,m,-,False,0.5090610980987549
38,g,-,-,True,0.5053257942199707
38,b,-,-,True,0.615999698638916
38,v,-,-,True,0.5121321678161621
38,c,-,-,True,0.6071009635925293
38,t,-,-,True,0.510796308517456
39,s,-,-,True,0.5934436321258545
39,j,-,-,True,0.49733519554138184
39,r,-,-,True,0.470897912979126
39,j,m,-,False,0.4642617702484131
39,c,-,-,True,0.5136635303497314
39,f,-,-,True,0.5627007484436035
39,t,-,-,True,0.5698201656341553
39,y,-,-,True,0.4958493709564209
39,l,-,-,True,0.6076905727386475
39,y,m,-,False,0.46919822692871094
39,x,-,-,True,0.48302388191223145
39,l,-,-,True,0.8732755184173584
39,s,-,-,True,0.49759578704833984
39,g,-,-,True,0.4866313934326172
39,j,-,-,True,0.5297040939331055
39,g,m,-,False,0.5750570297241211
39,j,m,m,True,0.5130176544189453
39,y,-,-,True,0.5889461040496826
39,j,m,-,False,0.5170872211456299
39,y,m,-,False,0.6019282341003418
39,q,-,-,True,0.4910471439361572
39,r,-,-,True,0.7399203777313232
39,q,m,-,False,0.48301172256469727
39,r,m,-,False,0.49951934814453125
40,r,-,-,True,0.5919599533081055
40,x,-,-,True,0.46338558197021484
40,f,-,-,True,0.4726521968841553
40,p,-,-,True,0.47818708419799805
40,f,m,-,False,0.965705156326294
40,v,-,-,True,0.44975781440734863
40,f,m,m,True,0.5743694305419922
40,g,-,-,True,0.4830598831176758
40,p,-,-,True,0.488724946975708
40,z,-,-,True,0.4867370128631592
40,p,m,m,True,0.48416924476623535
40,z,m,-,False,0.4732179641723633
40,t,-,-,True,0.5656020641326904
40,z,m,-,False,0.47800469398498535
40,n,-,-,True,0.5139279365539551
40,p,-,m,False,0.5895023345947266
40,w,-,-,True,0.9344353675842285
40,p,m,m,True,0.6958091259002686
40,w,m,-,False,0.5074076652526855
40,p,m,m,True,0.5074684619903564
40,b,-,-,True,0.5244455337524414
40,d,-,-,True,0.5845656394958496
40,z,-,-,True,0.4864006042480469
40,s,-,-,True,0.5088381767272949
41,p,-,-,True,0.4702167510986328
41,w,-,-,True,0.46326541900634766
41,k,-,-,True,0.46961355209350586
41,w,m,-,False,0.5866813659667969
41,h,-,-,True,0.4794962406158447
41,d,-,-,True,0.48094844818115234
41,g,-,-,True,0.5139553546905518
41,r,-,-,True,0.6009399890899658
41,l,-,-,True,0.5028133392333984
41,c,-,-,True,0.5903713703155518
41,r,-,m,False,1.4379551410675049
41,z,-,-,True,0.601125955581665
41,r,m,m,True,0.6210618019104004
41,z,m,-,False,1.483093023300171
41,b,-,-,True,0.5883283615112305
41,z,m,-,False,0.4960811138153076
41,g,-,-,True,0.5946519374847412
41,z,m,-,False,0.4913330078125
41,g,m,-,False,0.5198056697845459
41,q,-,-,True,0.48005151748657227
41,g,m,-,False,0.5854783058166504
41,r,-,-,True,0.5722362995147705
41,q,-,-,True,0.48548150062561035
41,r,m,-,False,0.509350061416626
42,b,-,-,True,0.9046752452850342
42,h,-,-,True,0.5042946338653564
42,b,m,-,False,0.4964325428009033
42,r,-,-,True,0.5618910789489746
42,b,m,m,True,0.5901148319244385
42,r,m,-,False,0.4743492603302002
42,t,-,-,True,0.5383307933807373
42,l,-,-,True,0.5063223838806152
42,q,-,-,True,0.4923067092895508
42,l,m,-,False,0.4945261478424072
42,d,-,-,True,0.5194721221923828
42,l,m,m,True,0.5087337493896484
42,d,m,-,False,0.5957779884338379
42,y,-,-,True,0.6076517105102539
42,d,m,m,True,0.5114171504974365
42,p,-,-,True,0.493804931640625
42,k,-,-,True,0.7366940975189209
42,w,-,-,True,0.597367525100708
42,s,-,m,False,0.5321447849273682
42,l,-,m,False,0.5907797813415527
42,b,-,-,True,0.4845297336578369
42,l,m,m,True,0.5165274143218994
42,c,-,-,True,0.6090409755706787
42,d,-,-,True,0.9595186710357666
43,j,-,-,True,0.9986732006072998
43,d,-,-,True,0.4760892391204834
43,j,m,-,False,0.5364036560058594
43,s,-,-,True,0.6230199337005615
43,s,-,-,True,0.5421061515808105
43,s,m,m,True,0.45525217056274414
43,p,-,-,True,0.6125106811523438
43,s,m,-,False,0.4769411087036133
43,p,m,-,False,0.468991756439209
43,k,-,-,True,0.46326732635498047
43,t,-,-,True,0.5605082511901855
43,k,m,-,False,0.4880340099334717
43,k,-,m,False,0.5476267337799072
43,k,m,-,False,0.43998026847839355
43,s,-,m,False,0.6559281349182129
43,k,m,-,False,0.5300970077514648
43,s,m,-,False,0.5727636814117432
43,l,-,-,True,0.4759864807128906
43,l,-,-,True,0.45004987716674805
43,c,-,-,True,0.4655311107635498
43,j,-,-,True,0.5068559646606445
43,w,-,-,True,0.6951425075531006
43,n,-,-,True,0.4821770191192627
43,r,-,-,True,0.4690277576446533
44,n,-,-,True,0.8747048377990723
44,w,-,-,True,0.43808913230895996
44,p,-,-,True,0.47847890853881836
44,x,-,-,True,0.6707038879394531
44,v,-,-,True,0.4913675785064697
44,w,-,-,True,0.46475648880004883
44,d,-,-,True,0.7056088447570801
44,g,-,-,True,0.98114013671875
44,r,-,-,True,0.4523775577545166
44,g,m,-,False,0.5546176433563232
44,r,m,m,True,0.7995963096618652
44,h,-,-,True,0.5840964317321777
44,d,-,-,True,0.5361623764038086
44,q,-,-,True,0.5732495784759521
44,d,m,-,False,0.55684494972229
44,x,-,-,True,0.573289155960083
44,d,m,-,False,0.5986690521240234
44,x,m,m,True,0.5649702548980713
44,d,m,-,False,0.46293115615844727
44,x,m,-,False,1.4440789222717285
44,d,m,-,False,0.5022377967834473
44,p,-,-,True,0.499523401260376
44,z,-,-,True,0.5061025619506836
44,n,-,-,True,0.45249223709106445
45,f,-,-,True,1.0432171821594238
45,r,-,-,True,0.5286521911621094
45,w,-,-,True,0.5937647819519043
45,r,m,-,False,0.9908885955810547
45,w,m,-,False,0.5227212905883789
45,k,-,-,True,0.484879732131958
45,n,-,-,True,0.4914393424987793
45,k,m,-,False,0.6308925151824951
45,n,m,-,False,0.5057544708251953
45,y,-,-,True,0.4990713596343994
45,k,-,-,True,0.4972231388092041
45,z,-,-,True,0.508272647857666
45,t,-,-,True,0.9419245719909668
45,l,-,-,True,0.5185840129852295
45,v,-,-,True,0.4960479736328125
45,l,m,-,False,0.6231675148010254
45,v,m,-,False,0.5232710838317871
45,l,m,m,True,0.5097827911376953
45,g,-,-,True,0.5135812759399414
45,c,-,-,True,0.5688490867614746
45,g,m,-,False,0.5310180187225342
45,b,-,-,True,0.5060350894927979
45,y,-,-,True,1.4950499534606934
45,n,-,-,True,0.8185725212097168
46,q,-,-,True,1.392591953277588
46,v,-,-,True,0.5851552486419678
46,g,-,-,True,0.6003403663635254
46,k,-,-,True,0.6002099514007568
46,f,-,-,True,0.48666954040527344
46,k,m,-,False,0.6175718307495117
46,f,m,-,False,0.5888381004333496
46,k,m,-,False,0.7506685256958008
46,s,-,-,True,0.5285663604736328
46,d,-,-,True,0.5521869659423828
46,p,-,-,True,0.7769696712493896
46,d,m,-,False,0.6078639030456543
46,p,m,-,False,1.6933317184448242
46,k,-,-,True,0.6763315200805664
46,p,m,-,False,0.5133144855499268
46,y,-,-,True,0.9730362892150879
46,p,m,m,True,0.6048827171325684
46,n,-,-,True,1.512941598892212
46,p,m,m,True,0.7498950958251953
46,s,-,-,True,0.6228311061859131
46,w,-,-,True,0.5825307369232178
46,c,-,-,True,0.5346641540527344
46,l,-,-,True,0.5509388446807861
46,s,-,-,True,0.649791955947876
47,z,-,-,True,0.5462522506713867
47,r,-,-,True,0.6308104991912842
47,l,-,-,True,0.504335880279541
47,r,m,-,False,0.5076367855072021
47,l,m,m,True,1.4663851261138916
47,j,-,-,True,0.5174262523651123
47,l,m,-,False,0.4800758361816406
47,s,-,-,True,1.44545316696167
47,g,-,-,True,0.5781044960021973
47,s,m,-,False,0.6159591674804688
47,b,-,-,True,0.629967212677002
47,s,m,m,True,0.8139994144439697
47,h,-,-,True,0.505335807800293
47,w,-,-,True,0.5299124717712402
47,t,-,-,True,0.528921365737915
47,d,-,-,True,1.1139776706695557
47,s,-,m,False,0.552762508392334
47,b,-,-,True,0.8849382400512695
47,s,m,m,True,1.467055320739746
47,h,-,-,True,0.6001358032226562
47,s,m,m,True,0.7131719589233398
47,l,-,-,True,0.6382114887237549
47,x,-,-,True,0.6284339427947998
47,l,m,-,False,0.6009302139282227
48,j,-,-,True,0.9196228981018066
48,x,-,-,True,0.4791898727416992
48,j,m,-,False,0.48581790924072266
48,x,m,-,False,0.5734877586364746
48,n,-,-,True,1.4639344215393066
48,v,-,-,True,0.47797274589538574
48,n,m,-,False,1.4728991985321045
48,d,-,-,True,0.5002269744873047
48,n,m,m,True,0.5859739780426025
48,w,-,-,True,0.61806321144104
48,c,-,-,True,0.5089125633239746
48,w,m,-,False,0.6407315731048584
48,c,m,m,True,0.5691318511962891
48,z,-,-,True,0.6289708614349365
48,h,-,-,True,0.4962344169616699
48,z,m,-,False,0.5110275745391846
48,f,-,-,True,0.5060601234436035
48,x,-,-,True,0.5063149929046631
48,t,-,-,True,0.6118543148040771
48,f,-,-,True,0.5732498168945312
48,t,m,-,False,0.600147008895874
48,y,-,-,True,0.5086376667022705
48,c,-,-,True,0.5157127380371094
48,h,-,-,True,0.9585940837860107
49,q,-,-,True,1.0235686302185059
49,j,-,-,True,0.4718286991119385
49,c,-,-,True,1.4265713691711426
49,j,m,-,False,0.5768585205078125
49,w,-,-,True,0.7245652675628662
49,v,-,m,False,0.9712831974029541
49,n,-,-,True,0.5195581912994385
49,v,m,-,False,0.5872421264648438
49,d,-,-,True,0.5006115436553955
49,x,-,-,True,0.5852334499359131
49,h,-,-,True,0.5922179222106934
49,p,-,-,True,0.46755480766296387
49,h,m,-,False,1.21683931350708
49,p,m,m,True,0.5344617366790771
49,h,m,-,False,0.9641048908233643
49,d,-,-,True,0.5126769542694092
49,d,-,m,False,0.49219608306884766
49,l,-,-,True,0.49005722999572754
49,w,-,-,True,0.5179798603057861
49,q,-,m,False,0.6233878135681152
49,t,-,-,True,0.5057811737060547
49,q,m,-,False,0.5789976119995117
49,t,m,-,False,0.5132339000701904
49,q,m,m,True,0.5003135204315186
