block,trial_index,stimulus,target,response,correct,rt
0,23,t,-,-,True,1.4319374561309814
0,23,r,-,-,True,1.117170810699463
0,23,j,-,-,True,0.5521047115325928
0,23,g,-,-,True,0.7932863235473633
0,23,r,m,-,False,0.594273567199707
0,23,k,-,-,True,0.7033989429473877
0,23,y,-,-,True,0.5358071327209473
0,23,q,-,-,True,0.9672093391418457
0,23,k,m,m,True,0.5723254680633545
0,23,y,m,-,False,0.5292253494262695
0,23,y,-,-,True,0.4810755252838135
0,23,p,-,-,True,0.7389483451843262
0,23,r,-,m,False,0.5122270584106445
0,23,y,m,-,False,0.9686148166656494
0,23,p,m,-,False,0.4880213737487793
0,23,w,-,-,True,0.49637699127197266
0,23,v,-,-,True,0.7814948558807373
0,23,x,-,-,True,0.6108334064483643
0,23,w,m,m,True,0.48085618019104004
0,23,y,-,-,True,0.5981099605560303
0,23,l,-,-,True,0.5235641002655029
0,23,k,-,-,True,0.6174232959747314
0,23,y,m,-,False,0.4934353828430176
0,23,l,m,-,False,0.6185336112976074
1,23,w,-,-,True,0.49950098991394043
1,23,p,-,-,True,0.5195083618164062
1,23,z,-,-,True,0.4975450038909912
1,23,v,-,-,True,0.4865686893463135
1,23,l,-,-,True,0.49318456649780273
1,23,l,-,-,True,0.559337854385376
1,23,v,m,-,False,0.49647951126098633
1,23,f,-,-,True,0.8049314022064209
1,23,l,m,-,False,0.49018335342407227
1,23,f,-,-,True,0.495086669921875
1,23,f,m,m,True,0.5098857879638672
1,23,x,-,-,True,0.47614121437072754
1,23,f,m,-,False,0.51399827003479
1,23,c,-,-,True,0.48492860794067383
1,23,s,-,-,True,0.5912570953369141
1,23,f,m,m,True,0.6010122299194336
1,23,x,-,-,True,0.5266909599304199
1,23,v,-,-,True,0.987663745880127
1,23,f,m,-,False,0.9342312812805176
1,23,d,-,-,True,1.482356309890747
1,23,n,-,-,True,0.5873615741729736
1,23,f,m,-,False,0.5165755748748779
1,23,x,-,-,True,0.5291891098022461
1,23,n,m,-,False,0.6966817378997803
2,23,r,-,-,True,0.9442479610443115
2,23,y,-,-,True,0.543910026550293
2,23,n,-,-,True,0.6245973110198975
2,23,r,m,-,False,0.5092782974243164
2,23,w,-,-,True,0.5011100769042969
2,23,n,m,m,True,0.4849865436553955
2,23,r,m,-,False,0.5255527496337891
2,23,w,m,-,False,0.4901158809661865
2,23,b,-,-,True,0.4899458885192871
2,23,p,-,-,True,0.532752513885498
2,23,z,-,-,True,0.5736353397369385
2,23,t,-,-,True,0.5877537727355957
2,23,p,m,-,False,0.47148656845092773
2,23,h,-,-,True,0.9279210567474365
2,23,z,-,-,True,0.494781494140625
2,23,g,-,-,True,0.5399930477142334
2,23,p,-,-,True,0.5091240406036377
2,23,z,m,-,False,0.5147273540496826
2,23,w,-,-,True,0.5157890319824219
2,23,p,m,-,False,0.5466246604919434
2,23,j,-,-,True,0.49800610542297363
2,23,k,-,-,True,0.6444680690765381
2,23,f,-,-,True,0.4965078830718994
2,23,j,m,-,False,0.5227937698364258
3,23,p,-,-,True,1.8839824199676514
3,23,j,-,-,True,0.491363525390625
3,23,t,-,-,True,0.48987412452697754
3,23,p,m,-,False,0.5068783760070801
3,23,z,-,-,True,0.561976432800293
3,23,t,m,m,True,0.6100070476531982
3,23,p,m,-,False,0.5144751071929932
3,23,f,-,-,True,0.6064763069152832
3,23,h,-,-,True,1.459035873413086
3,23,x,-,-,True,0.5535740852355957
3,23,f,m,-,False,0.6163039207458496
3,23,p,-,m,False,0.6065113544464111
3,23,z,-,-,True,0.5011212825775146
3,23,h,-,-,True,0.9642610549926758
3,23,w,-,-,True,0.5269641876220703
3,23,z,m,-,False,0.648411750793457
3,23,x,-,-,True,0.6281180381774902
3,23,y,-,-,True,0.6320717334747314
3,23,v,-,-,True,0.630408525466919
3,23,x,m,-,False,0.7512974739074707
3,23,y,m,-,False,0.6354703903198242
3,23,c,-,-,True,0.5153248310089111
3,23,x,m,-,False,0.5900924205780029
3,23,c,-,-,True,1.461967945098877
4,23,d,-,-,True,0.49135279655456543
4,23,x,-,-,True,0.4968140125274658
4,23,f,-,-,True,0.6610763072967529
4,23,d,m,-,False,0.49418163299560547
4,23,r,-,-,True,0.4885141849517822
4,23,q,-,-,True,0.505803108215332
4,23,p,-,-,True,0.5378677845001221
4,23,j,-,-,True,0.4940798282623291
4,23,z,-,-,True,0.7605488300323486
4,23,p,m,-,False,0.5901260375976562
4,23,h,-,-,True,0.54146409034729
4,23,z,m,m,True,0.5871920585632324
4,23,n,-,-,True,0.5350954532623291
4,23,h,m,-,False,0.5071156024932861
4,23,z,m,-,False,0.6057388782501221
4,23,g,-,-,True,0.5308253765106201
4,23,h,m,m,True,0.5192201137542725
4,23,z,m,-,False,0.5276060104370117
4,23,l,-,-,True,0.6165769100189209
4,23,h,m,-,False,0.5103988647460938
4,23,c,-,-,True,0.9259326457977295
4,23,s,-,-,True,0.6826908588409424
4,23,v,-,-,True,0.6340501308441162
4,23,f,-,-,True,0.5495660305023193
5,23,n,-,-,True,0.932866096496582
5,23,n,-,-,True,0.52266526222229
5,23,j,-,-,True,0.5189683437347412
5,23,g,-,-,True,0.4937891960144043
5,23,f,-,-,True,0.6011669635772705
5,23,w,-,-,True,0.7421703338623047
5,23,g,m,-,False,0.5912115573883057
5,23,f,m,m,True,0.4810166358947754
5,23,w,m,-,False,0.5322861671447754
5,23,g,m,-,False,0.4835066795349121
5,23,z,-,-,True,0.524982213973999
5,23,w,m,-,False,0.498852014541626
5,23,g,m,-,False,0.5809423923492432
5,23,v,-,-,True,0.5359811782836914
5,23,x,-,-,True,0.5068650245666504
5,23,f,-,-,True,0.7364234924316406
5,23,q,-,-,True,0.5336990356445312
5,23,n,-,-,True,0.6457576751708984
5,23,f,m,-,False,0.6334176063537598
5,23,v,-,-,True,0.5487744808197021
5,23,n,m,-,False,0.6528439521789551
5,23,w,-,-,True,0.5241665840148926
5,23,y,-,-,True,0.6239829063415527
5,23,f,-,-,True,0.553056001663208
6,23,f,-,-,True,0.8642199039459229
6,23,y,-,-,True,0.4551351070404053
6,23,n,-,-,True,0.48584413528442383
6,23,f,m,-,False,0.4682750701904297
6,23,y,m,-,False,0.5704050064086914
6,23,r,-,-,True,0.478118896484375
6,23,f,m,-,False,0.46279430389404297
6,23,y,m,-,False,0.44759702682495117
6,23,r,m,-,False,0.4814465045928955
6,23,g,-,-,True,0.5845937728881836
6,23,j,-,-,True,0.8078451156616211
6,23,b,-,-,True,0.5912423133850098
6,23,g,m,-,False,0.6392858028411865
6,23,h,-,-,True,0.5072009563446045
6,23,f,-,-,True,0.5121262073516846
6,23,g,m,m,True,0.5184876918792725
6,23,h,m,-,False,0.5643174648284912
6,23,t,-,-,True,0.5040550231933594
6,23,x,-,-,True,0.49831414222717285
6,23,q,-,-,True,0.6435751914978027
6,23,n,-,-,True,0.481520414352417
6,23,t,-,-,True,0.6207320690155029
6,23,j,-,-,True,0.5891144275665283
6,23,d,-,-,True,0.6025774478912354
7,23,z,-,-,True,0.6683778762817383
7,23,n,-,-,True,0.9479420185089111
7,23,y,-,-,True,0.48914670944213867
7,23,p,-,-,True,0.46010303497314453
7,23,n,m,m,True,0.46722412109375
7,23,y,m,-,False,0.4869692325592041
7,23,l,-,-,True,0.483410120010376
7,23,j,-,-,True,0.5203030109405518
7,23,y,m,-,False,0.5803537368774414
7,23,c,-,-,True,0.5150039196014404
7,23,b,-,-,True,0.5405559539794922
7,23,y,m,m,True,0.46817493438720703
7,23,d,-,-,True,0.4660987854003906
7,23,b,m,-,False,0.6317007541656494
7,23,v,-,-,True,0.5048034191131592
7,23,d,m,-,False,0.48685145378112793
7,23,p,-,-,True,0.48468732833862305
7,23,c,-,-,True,0.5419149398803711
7,23,d,m,m,True,0.514672040939331
7,23,v,-,-,True,0.634906530380249
7,23,r,-,-,True,0.6029629707336426
7,23,c,-,-,True,0.667496919631958
7,23,v,m,-,False,0.6053009033203125
7,23,w,-,-,True,0.49114394187927246
8,23,h,-,-,True,0.5098049640655518
8,23,j,-,-,True,0.46834230422973633
8,23,f,-,-,True,1.4249215126037598
8,23,q,-,-,True,0.9590229988098145
8,23,p,-,-,True,0.5727267265319824
8,23,t,-,-,True,0.5079691410064697
8,23,q,m,-,False,0.5985076427459717
8,23,n,-,-,True,0.664564847946167
8,23,w,-,-,True,0.44734930992126465
8,23,y,-,m,False,0.5328986644744873
8,23,n,m,-,False,0.5653829574584961
8,23,b,-,-,True,0.47408032417297363
8,23,d,-,-,True,1.4804713726043701
8,23,t,-,-,True,0.9103693962097168
8,23,b,m,-,False,0.5638120174407959
8,23,z,-,-,True,0.46866679191589355
8,23,h,-,-,True,0.7790296077728271
8,23,b,m,-,False,0.4826176166534424
8,23,n,-,-,True,0.46740269660949707
8,23,h,m,-,False,0.6813886165618896
8,23,b,m,-,False,0.45670056343078613
8,23,n,m,-,False,0.589174747467041
8,23,h,m,-,False,0.4769935607910156
8,23,h,-,m,False,0.5022692680358887
9,23,p,-,-,True,0.4672811031341553
9,23,v,-,-,True,0.45514917373657227
9,23,q,-,-,True,0.5361883640289307
9,23,d,-,-,True,0.4618256092071533
9,23,q,-,-,True,0.4509096145629883
9,23,q,m,m,True,0.6046881675720215
9,23,d,m,-,False,0.5590746402740479
9,23,q,m,-,False,0.45023250579833984
9,23,p,-,-,True,0.4721958637237549
9,23,g,-,-,True,0.8111584186553955
9,23,q,m,-,False,0.47165989875793457
9,23,j,-,-,True,0.5630011558532715
9,23,l,-,-,True,0.4686930179595947
9,23,q,m,m,True,0.5115072727203369
9,23,q,-,-,True,0.603644609451294
9,23,t,-,-,True,0.4676196575164795
9,23,q,m,-,False,1.4698872566223145
9,23,l,-,-,True,0.4605233669281006
9,23,t,m,-,False,0.5989205837249756
9,23,v,-,-,True,0.5894265174865723
9,23,x,-,-,True,0.5613226890563965
9,23,t,m,-,False,0.4867362976074219
9,23,l,-,-,True,0.9279344081878662
9,23,l,-,-,True,0.4828488826751709
10,23,l,-,-,True,1.1256670951843262
10,23,q,-,-,True,0.9370355606079102
10,23,b,-,-,True,0.49873948097229004
10,23,q,-,-,True,0.49637460708618164
10,23,q,m,m,True,0.5939888954162598
10,23,b,m,-,False,0.5251927375793457
10,23,q,m,-,False,0.5274629592895508
10,23,n,-,-,True,0.6311535835266113
10,23,l,-,-,True,0.5257222652435303
10,23,k,-,-,True,0.617239236831665
10,23,n,m,-,False,1.4729440212249756
10,23,g,-,-,True,0.6175951957702637
10,23,d,-,-,True,1.571789026260376
10,23,n,m,-,False,0.7759709358215332
10,23,g,m,-,False,1.0015037059783936
10,23,z,-,-,True,0.5569491386413574
10,23,n,m,-,False,1.1134352684020996
10,23,d,-,-,True,0.5644271373748779
10,23,z,m,-,False,0.5856692790985107
10,23,h,-,-,True,0.6194343566894531
10,23,g,-,-,True,1.0034682750701904
10,23,d,-,-,True,0.5378174781799316
10,23,x,-,-,True,0.5172500610351562
10,23,p,-,-,True,0.62611985206604
11,23,r,-,-,True,0.6557900905609131
11,23,k,-,-,True,0.5625622272491455
11,23,x,-,-,True,0.4952738285064697
11,23,y,-,-,True,0.9441273212432861
11,23,p,-,-,True,0.9757575988769531
11,23,f,-,-,True,0.49593138694763184
11,23,y,m,-,False,0.5023400783538818
11,23,y,-,m,False,0.5951220989227295
11,23,t,-,-,True,0.6092467308044434
11,23,f,-,-,True,0.5430476665496826
11,23,v,-,-,True,0.5969059467315674
11,23,y,-,-,True,0.5436336994171143
11,23,z,-,-,True,0.5601406097412109
11,23,t,-,-,True,0.5144233703613281
11,23,y,m,-,False,0.502899169921875
11,23,z,m,-,False,0.5678060054779053
11,23,b,-,-,True,0.5098085403442383
11,23,w,-,-,True,0.5070853233337402
11,23,r,-,-,True,0.6197981834411621
11,23,b,m,-,False,0.5116376876831055
11,23,w,m,-,False,0.6185498237609863
11,23,r,m,-,False,0.5136384963989258
11,23,b,m,-,False,0.5081729888916016
11,23,w,m,-,False,0.573209285736084
12,23,n,-,-,True,0.6151473522186279
12,23,f,-,-,True,0.6053435802459717
12,23,x,-,-,True,0.4826185703277588
12,23,v,-,-,True,0.6056673526763916
12,23,d,-,-,True,0.49443864822387695
12,23,x,m,-,False,0.5941672325134277
12,23,b,-,-,True,0.5578896999359131
12,23,h,-,-,True,0.9527115821838379
12,23,x,m,-,False,0.5069406032562256
12,23,x,-,m,False,0.49626755714416504
12,23,h,m,-,False,0.6245553493499756
12,23,r,-,-,True,0.49234867095947266
12,23,l,-,-,True,0.5403528213500977
12,23,h,m,-,False,0.5148773193359375
12,23,v,-,-,True,0.6175520420074463
12,23,y,-,-,True,0.4976048469543457
12,23,t,-,-,True,0.9563064575195312
12,23,n,-,-,True,0.8435797691345215
12,23,y,m,-,False,1.5005064010620117
12,23,n,-,-,True,0.5235390663146973
12,23,n,m,m,True,0.6119494438171387
12,23,y,m,-,False,0.5190377235412598
12,23,n,m,-,False,0.4988129138946533
12,23,k,-,-,True,0.6461119651794434
13,23,p,-,-,True,0.598574161529541
13,23,p,-,-,True,0.4868175983428955
13,23,z,-,-,True,0.49358177185058594
13,23,w,-,-,True,0.4886627197265625
13,23,l,-,-,True,0.5855858325958252
13,23,z,m,-,False,0.4845283031463623
13,23,t,-,-,True,0.6165399551391602
13,23,l,m,-,False,0.5437664985656738
13,23,z,m,-,False,0.5822257995605469
13,23,p,-,-,True,0.4941732883453369
13,23,l,m,-,False,0.4851517677307129
13,23,z,m,-,False,0.49657750129699707
13,23,p,m,-,False,0.4963352680206299
13,23,h,-,-,True,0.5206460952758789
13,23,x,-,-,True,0.7606878280639648
13,23,x,-,-,True,0.7608520984649658
13,23,h,m,-,False,0.5381231307983398
13,23,n,-,-,True,0.5152592658996582
13,23,n,-,m,False,0.6108522415161133
13,23,b,-,-,True,0.5585739612579346
13,23,v,-,-,True,0.6079401969909668
13,23,s,-,-,True,0.5289030075073242
13,23,f,-,-,True,0.4887731075286865
13,23,v,m,-,False,0.5861725807189941
14,23,f,-,-,True,0.9389994144439697
14,23,c,-,-,True,0.522578239440918
14,23,t,-,-,True,0.48134279251098633
14,23,n,-,-,True,0.45203256607055664
14,23,c,m,-,False,0.4703257083892822
14,23,t,m,m,True,0.48442792892456055
14,23,n,m,-,False,0.4667987823486328
14,23,k,-,-,True,0.47899723052978516
14,23,g,-,-,True,0.4684453010559082
14,23,d,-,-,True,0.44863390922546387
14,23,k,m,-,False,0.5856835842132568
14,23,k,-,m,False,1.39078688621521
14,23,d,m,-,False,0.5114462375640869
14,23,f,-,-,True,0.704035758972168
14,23,x,-,-,True,0.6047329902648926
14,23,y,-,-,True,0.554682731628418
14,23,s,-,-,True,0.5574860572814941
14,23,r,-,-,True,0.48761868476867676
14,23,y,m,-,False,0.48628878593444824
14,23,s,m,-,False,0.4922170639038086
14,23,y,-,-,True,1.4865350723266602
14,23,f,-,-,True,0.7548165321350098
14,23,s,m,-,False,0.8765394687652588
14,23,k,-,-,True,0.9235541820526123
15,23,z,-,-,True,1.5007295608520508
15,23,s,-,-,True,0.5037672519683838
15,23,n,-,-,True,0.6923360824584961
15,23,f,-,-,True,0.7053477764129639
15,23,s,m,-,False,1.0472185611724854
15,23,l,-,-,True,0.731320858001709
15,23,b,-,-,True,0.5380761623382568
15,23,k,-,-,True,0.6162457466125488
15,23,x,-,-,True,0.528357744216919
15,23,b,m,-,False,0.6313657760620117
15,23,k,m,-,False,0.7273504734039307
15,23,g,-,-,True,0.6439647674560547
15,23,w,-,-,True,0.6433472633361816
15,23,k,m,-,False,0.6625921726226807
15,23,d,-,-,True,0.5959169864654541
15,23,w,m,-,False,0.556915283203125
15,23,q,-,-,True,1.3265049457550049
15,23,d,m,-,False,0.8299953937530518
15,23,l,-,-,True,0.623152494430542
15,23,t,-,-,True,0.7628259658813477
15,23,d,m,m,True,0.6748745441436768
15,23,g,-,-,True,0.5784063339233398
15,23,t,m,-,False,0.8415889739990234
15,23,y,-,-,True,0.5793507099151611
16,23,c,-,-,True,0.7511329650878906
16,23,p,-,-,True,1.1625456809997559
16,23,z,-,-,True,0.6482408046722412
16,23,c,m,-,False,0.627946138381958
16,23,p,m,-,False,0.5206379890441895
16,23,z,m,-,False,0.5857870578765869
16,23,d,-,-,True,0.7415063381195068
16,23,p,m,-,False,0.6169030666351318
16,23,f,-,-,True,0.6681101322174072
16,23,s,-,-,True,0.6402943134307861
16,23,r,-,-,True,1.0567963123321533
16,23,n,-,-,True,0.6397764682769775
16,23,x,-,-,True,1.066169261932373
16,23,r,m,-,False,0.7670516967773438
16,23,h,-,-,True,0.591062068939209
16,23,z,-,-,True,0.6544580459594727
16,23,r,m,-,False,1.029472827911377
16,23,x,-,-,True,1.1064653396606445
16,23,c,-,-,True,0.5923593044281006
16,23,k,-,-,True,0.775282621383667
16,23,k,-,m,False,1.5461015701293945
16,23,c,m,-,False,1.1543302536010742
16,23,p,-,-,True,0.5808298587799072
16,23,k,m,-,False,0.5517184734344482
17,23,g,-,-,True,1.125648021697998
17,23,y,-,-,True,0.6356306076049805
17,23,d,-,-,True,1.2181172370910645
17,23,p,-,-,True,1.0160057544708252
17,23,y,m,-,False,0.5475211143493652
17,23,p,-,m,False,0.5733749866485596
17,23,r,-,-,True,0.5260171890258789
17,23,g,-,-,True,0.9614078998565674
17,23,p,m,m,True,0.6680252552032471
17,23,r,m,-,False,0.9669067859649658
17,23,r,-,-,True,0.5297675132751465
17,23,f,-,-,True,0.6428158283233643
17,23,h,-,-,True,0.5728023052215576
17,23,r,m,-,False,0.5415439605712891
17,23,q,-,-,True,0.5424468517303467
17,23,h,m,-,False,0.5463535785675049
17,23,c,-,-,True,0.5443148612976074
17,23,n,-,-,True,0.6655657291412354
17,23,h,m,-,False,0.558997392654419
17,23,k,-,-,True,0.5470631122589111
17,23,p,-,-,True,0.5513720512390137
17,23,h,m,-,False,0.5374875068664551
17,23,k,m,-,False,0.5492520332336426
17,23,r,-,-,True,0.5391459465026855
18,23,q,-,-,True,0.9461736679077148
18,23,z,-,-,True,0.49179601669311523
18,23,q,-,-,True,0.5479686260223389
18,23,g,-,-,True,0.5036823749542236
18,23,z,m,-,False,0.5180637836456299
18,23,d,-,-,True,0.5216250419616699
18,23,g,m,-,False,0.5170519351959229
18,23,z,m,-,False,0.906585693359375
18,23,d,m,-,False,0.5250606536865234
18,23,l,-,-,True,0.5483007431030273
18,23,w,-,-,True,0.5948920249938965
18,23,v,-,-,True,0.5343019962310791
18,23,n,-,-,True,0.6085293292999268
18,23,r,-,-,True,0.5217008590698242
18,23,n,-,-,True,0.6079010963439941
18,23,n,m,m,True,0.635897159576416
18,23,r,m,-,False,0.5321459770202637
18,23,n,m,m,True,0.7316322326660156
18,23,s,-,-,True,0.9684827327728271
18,23,l,-,-,True,0.7036082744598389
18,23,f,-,-,True,0.5123419761657715
18,23,s,m,-,False,0.5511834621429443
18,23,w,-,-,True,0.5373625755310059
18,23,w,-,m,False,0.569983959197998
19,23,d,-,-,True,0.8537678718566895
19,23,h,-,-,True,0.6169872283935547
19,23,g,-,-,True,0.4567596912384033
19,23,x,-,-,True,1.4393668174743652
19,23,h,m,-,False,0.5769786834716797
19,23,n,-,-,True,0.4687056541442871
19,23,j,-,-,True,0.5010871887207031
19,23,z,-,-,True,0.45406627655029297
19,23,n,m,-,False,0.4844779968261719
19,23,w,-,-,True,0.5630857944488525
19,23,w,-,m,False,0.49808669090270996
19,23,g,-,-,True,0.4870595932006836
19,23,w,m,-,False,0.48526501655578613
19,23,w,m,m,True,0.5023908615112305
19,23,n,-,-,True,0.5116252899169922
19,23,y,-,-,True,0.4779350757598877
19,23,p,-,-,True,0.8966488838195801
19,23,j,-,-,True,0.7182378768920898
19,23,y,m,-,False,0.5701248645782471
19,23,p,m,-,False,0.6046311855316162
19,23,d,-,-,True,0.9201624393463135
19,23,c,-,-,True,0.669809103012085
19,23,p,m,-,False,0.6461594104766846
19,23,d,m,-,False,0.5416784286499023
20,23,k,-,-,True,1.2074031829833984
20,23,p,-,-,True,0.4591500759124756
20,23,d,-,-,True,0.9188492298126221
20,23,k,m,-,False,0.48000168800354004
20,23,p,m,-,False,0.5853230953216553
20,23,d,m,m,True,0.5673415660858154
20,23,s,-,-,True,0.570763349533081
20,23,p,m,-,False,0.47594189643859863
20,23,q,-,-,True,1.4255306720733643
20,23,j,-,-,True,0.5776746273040771
20,23,d,-,-,True,0.49886512756347656
20,23,q,m,-,False,0.49545836448669434
20,23,p,-,m,False,0.5798015594482422
20,23,d,m,-,False,0.5866565704345703
20,23,n,-,-,True,0.584956169128418
20,23,h,-,-,True,0.5978245735168457
20,23,n,-,m,False,0.4693644046783447
20,23,j,-,-,True,0.5543067455291748
20,23,h,m,-,False,0.4962780475616455
20,23,p,-,-,True,0.5166013240814209
20,23,f,-,-,True,0.5452141761779785
20,23,w,-,-,True,0.9351756572723389
20,23,p,m,m,True,0.4758799076080322
20,23,t,-,-,True,0.6000370979309082
21,23,j,-,-,True,1.0205321311950684
21,23,x,-,-,True,0.5056676864624023
21,23,y,-,-,True,0.5111680030822754
21,23,w,-,-,True,0.4775407314300537
21,23,d,-,-,True,0.5074713230133057
21,23,y,m,-,False,1.058976650238037
21,23,v,-,-,True,0.60957932472229
21,23,s,-,-,True,0.5199697017669678
21,23,t,-,-,True,0.6025269031524658
21,23,v,m,-,False,0.7745823860168457
21,23,s,m,m,True,0.6201503276824951
21,23,b,-,-,True,0.6820459365844727
21,23,v,m,-,False,0.6419341564178467
21,23,s,m,-,False,0.6139776706695557
21,23,h,-,-,True,0.6889383792877197
21,23,k,-,-,True,0.6870331764221191
21,23,s,m,-,False,0.6845548152923584
21,23,j,-,-,True,0.5632660388946533
21,23,j,-,m,False,0.7749485969543457
21,23,b,-,-,True,0.6359908580780029
21,23,s,-,-,True,0.5671660900115967
21,23,z,-,-,True,0.5372209548950195
21,23,b,m,-,False,1.0615332126617432
21,23,s,m,m,True,0.6299152374267578
22,23,z,-,-,True,1.1667916774749756
22,23,r,-,-,True,0.5120959281921387
22,23,j,-,-,True,0.5140748023986816
22,23,x,-,-,True,0.9549057483673096
22,23,t,-,-,True,0.5909130573272705
22,23,q,-,-,True,0.5952985286712646
22,23,v,-,-,True,0.516549825668335
22,23,r,-,-,True,0.6223022937774658
22,23,q,m,-,False,0.49549174308776855
22,23,x,-,-,True,0.5437846183776855
22,23,r,m,m,True,0.5795621871948242
22,23,t,-,-,True,0.48304200172424316
22,23,x,m,-,False,0.511709451675415
22,23,v,-,-,True,0.9485454559326172
22,23,t,m,-,False,0.5144181251525879
22,23,z,-,-,True,0.6322367191314697
22,23,z,-,m,False,0.5159780979156494
22,23,n,-,-,True,0.622678279876709
22,23,z,m,m,True,0.49679064750671387
22,23,p,-,-,True,0.5173702239990234
22,23,n,m,-,False,0.5915071964263916
22,23,j,-,-,True,0.49762392044067383
22,23,p,m,-,False,1.0638213157653809
22,23,n,m,-,False,0.5384302139282227
23,23,c,-,-,True,1.6287009716033936
23,23,j,-,-,True,0.5895662307739258
23,23,h,-,-,True,0.9887509346008301
23,23,v,-,-,True,0.847069263458252
23,23,j,m,-,False,0.7898571491241455
23,23,y,-,-,True,0.7136743068695068
23,23,d,-,-,True,0.7605421543121338
23,23,w,-,-,True,0.6240794658660889
23,23,t,-,-,True,0.8647773265838623
23,23,y,-,-,True,0.6963140964508057
23,23,k,-,-,True,1.5377943515777588
23,23,v,-,-,True,0.5957839488983154
23,23,n,-,-,True,0.7892718315124512
23,23,t,-,-,True,0.5547957420349121
23,23,v,m,m,True,1.0387675762176514
23,23,n,m,-,False,0.6615664958953857
23,23,t,m,m,True,0.5987119674682617
23,23,v,m,-,False,0.6480674743652344
23,23,n,m,m,True,0.5805795192718506
23,23,t,m,m,True,0.589545726776123
23,23,r,-,-,True,0.6992125511169434
23,23,b,-,-,True,0.5983037948608398
23,23,d,-,-,True,0.913837194442749
23,23,r,m,-,False,1.5799520015716553
24,23,v,-,-,True,1.3343923091888428
24,23,g,-,-,True,0.553168773651123
24,23,h,-,-,True,0.5669581890106201
24,23,c,-,-,True,1.347987413406372
24,23,g,m,-,False,0.5558207035064697
24,23,h,m,-,False,1.3163487911224365
24,23,c,m,-,False,1.334766149520874
24,23,v,-,-,True,0.6402831077575684
24,23,w,-,-,True,0.6838572025299072
24,23,y,-,-,True,0.573883056640625
24,23,r,-,-,True,0.9198093414306641
24,23,w,m,-,False,1.55186128616333
24,23,y,m,-,False,0.5498783588409424
24,23,q,-,-,True,1.0150368213653564
24,23,z,-,-,True,1.0077464580535889
24,23,h,-,-,True,0.9184069633483887
24,23,f,-,-,True,1.237368106842041
24,23,z,m,-,False,0.8695816993713379
24,23,h,m,-,False,0.6197493076324463
24,23,x,-,-,True,1.3902089595794678
24,23,v,-,-,True,0.7880945205688477
24,23,h,m,-,False,0.6199116706848145
24,23,k,-,-,True,0.5483109951019287
24,23,p,-,-,True,0.607410192489624
25,23,y,-,-,True,1.1736133098602295
25,23,l,-,-,True,0.528536319732666
25,23,l,-,-,True,0.6177518367767334
25,23,q,-,-,True,0.5256779193878174
25,23,l,m,m,True,0.9504477977752686
25,23,x,-,-,True,0.5190098285675049
25,23,s,-,-,True,0.6477279663085938
25,23,j,-,-,True,1.167299509048462
25,23,x,m,-,False,0.5219964981079102
25,23,s,m,-,False,0.8210625648498535
25,23,j,m,-,False,0.5104897022247314
25,23,d,-,-,True,0.6169524192810059
25,23,k,-,-,True,0.7515373229980469
25,23,q,-,-,True,0.5327033996582031
25,23,s,-,-,True,0.6168596744537354
25,23,d,-,-,True,0.5317068099975586
25,23,z,-,-,True,0.5952038764953613
25,23,s,m,-,False,0.4908943176269531
25,23,h,-,-,True,0.5140366554260254
25,23,z,m,-,False,0.5404014587402344
25,23,p,-,-,True,0.6143519878387451
25,23,h,m,-,False,0.6888275146484375
25,23,z,m,-,False,0.6768641471862793
25,23,y,-,-,True,0.5130603313446045
26,23,j,-,-,True,0.5447089672088623
26,23,t,-,-,True,0.47642087936401367
26,23,f,-,-,True,0.9907512664794922
26,23,j,m,-,False,0.5190975666046143
26,23,t,m,-,False,0.5227775573730469
26,23,f,m,-,False,0.6025176048278809
26,23,p,-,-,True,0.5139040946960449
26,23,t,m,m,True,1.0924608707427979
26,23,y,-,-,True,0.5852758884429932
26,23,f,-,-,True,0.979363203048706
26,23,x,-,-,True,0.6119461059570312
26,23,c,-,-,True,0.5736207962036133
26,23,k,-,-,True,0.5332722663879395
26,23,q,-,-,True,0.5243630409240723
26,23,j,-,-,True,0.4897284507751465
26,23,r,-,-,True,1.6248993873596191
26,23,q,m,-,False,0.5274887084960938
26,23,g,-,-,True,0.7737112045288086
26,23,f,-,-,True,0.6109898090362549
26,23,q,m,-,False,0.6276931762695312
26,23,g,m,-,False,0.5331170558929443
26,23,f,m,-,False,0.8443186283111572
26,23,h,-,-,True,0.5235023498535156
26,23,k,-,-,True,0.7658061981201172
27,23,w,-,-,True,1.3558621406555176
27,23,q,-,-,True,0.4669678211212158
27,23,s,-,-,True,0.4652702808380127
27,23,w,m,-,False,0.49228739738464355
27,23,t,-,-,True,0.7437822818756104
27,23,s,m,-,False,0.4785449504852295
27,23,w,m,-,False,1.4344909191131592
27,23,z,-,-,True,0.466825008392334
27,23,g,-,-,True,0.47980213165283203
27,23,j,-,-,True,0.652512788772583
27,23,h,-,-,True,0.5776746273040771
27,23,g,m,-,False,0.54823899269104
27,23,y,-,-,True,0.5317082405090332
27,23,h,m,-,False,0.9452948570251465
27,23,c,-,-,True,0.7871665954589844
27,23,y,m,-,False,0.5038292407989502
27,23,q,-,-,True,0.9537277221679688
27,23,d,-,-,True,0.5056824684143066
27,23,r,-,-,True,0.921112060546875
27,23,q,m,-,False,0.5120470523834229
27,23,r,-,-,True,0.494734525680542
27,23,x,-,-,True,0.558058500289917
27,23,c,-,-,True,0.5953302383422852
27,23,r,m,-,False,0.5016627311706543
28,23,c,-,-,True,1.2604737281799316
28,23,j,-,-,True,0.5130140781402588
28,23,x,-,-,True,0.4986250400543213
28,23,f,-,-,True,0.508976936340332
28,23,t,-,-,True,0.5214033126831055
28,23,x,m,-,False,0.5902857780456543
28,23,c,-,-,True,0.6293315887451172
28,23,t,m,-,False,0.5081400871276855
28,23,q,-,-,True,1.4937307834625244
28,23,c,m,m,True,0.5376958847045898
28,23,r,-,-,True,0.5401053428649902
28,23,q,m,-,False,0.535731315612793
28,23,c,m,-,False,0.9375035762786865
28,23,f,-,-,True,1.499546766281128
28,23,v,-,-,True,0.9910774230957031
28,23,t,-,-,True,0.6367385387420654
28,23,f,m,m,True,0.5116589069366455
28,23,v,m,-,False,0.561164140701294
28,23,t,m,-,False,0.687699556350708
28,23,v,-,-,True,0.6329402923583984
28,23,r,-,-,True,0.5389425754547119
28,23,l,-,-,True,0.5313301086425781
28,23,y,-,-,True,0.9952142238616943
28,23,p,-,-,True,0.6506800651550293
29,23,z,-,-,True,0.5167696475982666
29,23,w,-,-,True,0.5102522373199463
29,23,c,-,-,True,0.5919816493988037
29,23,z,m,-,False,0.6155345439910889
29,23,w,m,-,False,0.6103456020355225
29,23,s,-,-,True,0.6137707233428955
29,23,z,m,-,False,0.5233559608459473
29,23,q,-,-,True,0.636314868927002
29,23,s,m,-,False,0.6242005825042725
29,23,z,m,-,False,0.5121209621429443
29,23,v,-,-,True,1.5659494400024414
29,23,s,m,-,False,0.632596492767334
29,23,z,m,-,False,0.5476303100585938
29,23,g,-,-,True,0.5459110736846924
29,23,z,-,-,True,0.5263583660125732
29,23,t,-,-,True,0.6328516006469727
29,23,w,-,-,True,0.5356478691101074
29,23,w,-,m,False,0.5471067428588867
29,23,g,-,-,True,0.571514368057251
29,23,w,m,-,False,0.6464784145355225
29,23,s,-,-,True,0.568415641784668
29,23,b,-,-,True,0.5579104423522949
29,23,q,-,-,True,0.6487259864807129
29,23,n,-,-,True,0.6707749366760254
30,23,p,-,-,True,1.0696616172790527
30,23,h,-,-,True,0.5564146041870117
30,23,y,-,-,True,0.47197437286376953
30,23,x,-,-,True,0.4976844787597656
30,23,h,m,m,True,1.1766014099121094
30,23,y,m,-,False,0.9258430004119873
30,23,b,-,-,True,0.46290087699890137
30,23,k,-,-,True,0.5485653877258301
30,23,g,-,-,True,0.4685027599334717
30,23,y,-,-,True,0.5182578563690186
30,23,y,-,m,False,0.47409629821777344
30,23,v,-,-,True,0.4780299663543701
30,23,y,m,-,False,0.4668748378753662
30,23,c,-,-,True,0.534315824508667
30,23,h,-,-,True,1.4291036128997803
30,23,y,m,-,False,0.5853719711303711
30,23,c,m,-,False,0.5651133060455322
30,23,b,-,-,True,0.47840118408203125
30,23,k,-,-,True,0.49271345138549805
30,23,c,m,-,False,0.5366799831390381
30,23,t,-,-,True,0.9349410533905029
30,23,k,m,-,False,0.48548316955566406
30,23,z,-,-,True,0.4880061149597168
30,23,t,m,-,False,0.5156395435333252
31,23,t,-,-,True,0.9253842830657959
31,23,r,-,-,True,0.9524054527282715
31,23,d,-,-,True,0.49501729011535645
31,23,f,-,-,True,0.49887776374816895
31,23,c,-,-,True,0.5045089721679688
31,23,d,m,m,True,0.49325060844421387
31,23,f,m,-,False,0.5050122737884521
31,23,x,-,-,True,0.5979514122009277
31,23,g,-,-,True,0.7630743980407715
31,23,f,m,m,True,0.49572038650512695
31,23,x,m,-,False,0.6369867324829102
31,23,g,m,-,False,0.5234928131103516
31,23,f,m,-,False,0.5180556774139404
31,23,h,-,-,True,0.5151858329772949
31,23,g,m,m,True,0.5196981430053711
31,23,d,-,-,True,0.5112087726593018
31,23,t,-,-,True,0.5454983711242676
31,23,r,-,-,True,0.5987317562103271
31,23,s,-,-,True,0.5073416233062744
31,23,h,-,-,True,0.6437883377075195
31,23,f,-,-,True,0.5316495895385742
31,23,s,m,-,False,0.508746862411499
31,23,v,-,-,True,0.5478990077972412
31,23,q,-,-,True,0.5220191478729248
32,23,k,-,-,True,1.1075563430786133
32,23,b,-,-,True,0.5252952575683594
32,23,j,-,-,True,0.4804110527038574
32,23,v,-,-,True,0.8527789115905762
32,23,z,-,-,True,0.5320425033569336
32,23,s,-,-,True,0.611821174621582
32,23,g,-,-,True,0.49416065216064453
32,23,z,m,-,False,0.5222618579864502
32,23,x,-,-,True,0.4935586452484131
32,23,g,m,m,True,0.8260011672973633
32,23,z,m,-,False,0.507148027420044
32,23,k,-,-,True,0.5245764255523682
32,23,g,m,-,False,0.9494404792785645
32,23,t,-,-,True,0.475661039352417
32,23,k,m,-,False,0.5183713436126709
32,23,l,-,-,True,0.9155361652374268
32,23,t,m,m,True,0.5056493282318115
32,23,k,m,-,False,0.5127291679382324
32,23,x,-,-,True,0.6004159450531006
32,23,r,-,-,True,0.5010113716125488
32,23,y,-,-,True,0.5022587776184082
32,23,y,-,-,True,0.6113269329071045
32,23,r,m,-,False,1.4507596492767334
32,23,s,-,m,False,0.5009713172912598
33,23,k,-,-,True,0.5880527496337891
33,23,j,-,-,True,0.45929861068725586
33,23,w,-,-,True,0.4879167079925537
33,23,j,-,-,True,0.4524545669555664
33,23,j,m,m,True,0.5773007869720459
33,23,x,-,-,True,0.5855927467346191
33,23,j,m,-,False,0.47405219078063965
33,23,c,-,-,True,0.6458430290222168
33,23,x,m,-,False,0.5833761692047119
33,23,y,-,-,True,0.48787856101989746
33,23,b,-,-,True,0.5015907287597656
33,23,x,m,-,False,0.6156136989593506
33,23,q,-,-,True,0.46352171897888184
33,23,b,m,-,False,0.8235368728637695
33,23,s,-,-,True,0.9543299674987793
33,23,z,-,-,True,0.4975588321685791
33,23,h,-,-,True,0.4954991340637207
33,23,y,-,-,True,0.5350148677825928
33,23,x,-,-,True,0.60831618309021
33,23,s,-,-,True,0.5280773639678955
33,23,y,m,-,False,0.5828030109405518
33,23,x,m,-,False,0.9681799411773682
33,23,s,m,-,False,0.4989619255065918
33,23,k,-,-,True,0.49138641357421875
34,23,x,-,-,True,1.071197271347046
34,23,y,-,-,True,0.4760138988494873
34,23,v,-,-,True,0.49546098709106445
34,23,x,m,-,False,0.4791073799133301
34,23,y,m,-,False,0.9709749221801758
34,23,v,m,-,False,0.47712254524230957
34,23,x,m,-,False,0.4644598960876465
34,23,l,-,-,True,0.4732496738433838
34,23,z,-,-,True,0.5744411945343018
34,23,c,-,-,True,0.4801065921783447
34,23,z,-,-,True,0.5792450904846191
34,23,z,m,m,True,0.484205961227417
34,23,c,m,-,False,0.4970419406890869
34,23,r,-,-,True,0.6073431968688965
34,23,b,-,-,True,0.572911262512207
34,23,s,-,-,True,0.4891841411590576
34,23,s,-,m,False,0.5931057929992676
34,23,x,-,-,True,0.5131449699401855
34,23,v,-,-,True,0.5072734355926514
34,23,b,-,-,True,0.5858893394470215
34,23,q,-,m,False,0.5170793533325195
34,23,v,m,-,False,0.477877140045166
34,23,b,m,-,False,0.5297608375549316
34,23,b,-,m,False,0.5025880336761475
35,23,q,-,-,True,0.8652985095977783
35,23,n,-,-,True,0.4508354663848877
35,23,p,-,-,True,0.526958703994751
35,23,q,m,-,False,1.4190130233764648
35,23,n,m,-,False,0.5659565925598145
35,23,h,-,-,True,0.5454308986663818
35,23,c,-,-,True,0.5653164386749268
35,23,z,-,-,True,0.46961331367492676
35,23,y,-,-,True,0.4821467399597168
35,23,c,m,-,False,0.5692245960235596
35,23,f,-,-,True,0.9584329128265381
35,23,r,-,-,True,0.5199449062347412
35,23,q,-,-,True,0.5875558853149414
35,23,f,m,-,False,0.46592211723327637
35,23,g,-,-,True,0.49209117889404297
35,23,q,m,-,False,0.5092229843139648
35,23,f,m,-,False,0.5159707069396973
35,23,g,m,-,False,0.48266100883483887
35,23,d,-,-,True,0.5212900638580322
35,23,f,m,-,False,0.6376986503601074
35,23,s,-,-,True,0.48782944679260254
35,23,h,-,-,True,0.4831387996673584
35,23,p,-,-,True,0.5819711685180664
35,23,y,-,-,True,0.9641413688659668
36,23,b,-,-,True,1.0244011878967285
36,23,s,-,-,True,0.46706509590148926
36,23,y,-,-,True,0.4940943717956543
36,23,w,-,-,True,0.46210408210754395
36,23,d,-,-,True,0.5398359298706055
36,23,d,-,m,False,0.6568622589111328
36,23,d,-,-,True,0.5829620361328125
36,23,l,-,-,True,0.5830292701721191
36,23,d,m,-,False,0.4815793037414551
36,23,d,m,m,True,0.9447786808013916
36,23,l,m,-,False,0.9386658668518066
36,23,d,m,-,False,0.4679234027862549
36,23,f,-,-,True,0.4958813190460205
36,23,l,m,-,False,0.49024009704589844
36,23,d,m,-,False,0.5625331401824951
36,23,k,-,-,True,0.593191385269165
36,23,n,-,-,True,0.5212001800537109
36,23,y,-,-,True,0.5689377784729004
36,23,d,-,-,True,0.525231122970581
36,23,b,-,-,True,0.5759739875793457
36,23,f,-,-,True,0.5234775543212891
36,23,d,m,-,False,0.49958062171936035
36,23,c,-,-,True,0.510979413986206
36,23,f,m,-,False,0.49141526222229004
37,23,f,-,-,True,1.0730483531951904
37,23,q,-,-,True,0.5123987197875977
37,23,b,-,-,True,0.565648078918457
37,23,z,-,-,True,0.5795495510101318
37,23,q,m,-,False,0.48679232597351074
37,23,b,m,-,False,0.4756197929382324
37,23,j,-,-,True,0.5708756446838379
37,23,l,-,-,True,0.5699794292449951
37,23,b,m,-,False,0.4835038185119629
37,23,f,-,-,True,0.6158061027526855
37,23,l,m,-,False,0.496326208114624
37,23,b,m,m,True,0.4767646789550781
37,23,x,-,-,True,0.5469386577606201
37,23,t,-,-,True,0.6235322952270508
37,23,z,-,-,True,0.5047321319580078
37,23,h,-,-,True,0.6925017833709717
37,23,t,m,-,False,0.636789083480835
37,23,z,m,m,True,0.5403645038604736
37,23,r,-,-,True,0.6546375751495361
37,23,v,-,-,True,0.5662901401519775
37,23,v,-,m,False,0.5162346363067627
37,23,d,-,-,True,0.6105265617370605
37,23,g,-,-,True,0.6997449398040771
37,23,v,m,m,True,1.540529727935791
38,23,g,-,-,True,1.109428882598877
38,23,j,-,-,True,0.5697469711303711
38,23,p,-,-,True,0.49202752113342285
38,23,g,m,-,False,0.8825721740722656
38,23,z,-,-,True,0.4740610122680664
38,23,p,m,-,False,0.5079782009124756
38,23,g,m,m,True,0.9515495300292969
38,23,f,-,-,True,0.5570709705352783
38,23,p,m,-,False,0.5541796684265137
38,23,b,-,-,True,0.8306586742401123
38,23,f,m,-,False,0.47750186920166016
38,23,z,-,-,True,0.6212952136993408
38,23,s,-,-,True,0.7665574550628662
38,23,f,m,-,False,0.47885775566101074
38,23,p,-,-,True,0.4718179702758789
38,23,n,-,-,True,0.5046548843383789
38,23,q,-,-,True,0.6229038238525391
38,23,v,-,-,True,0.4980645179748535
38,23,k,-,-,True,0.4789621829986572
38,23,q,m,-,False,0.509998083114624
38,23,v,m,-,False,0.607250452041626
38,23,n,-,-,True,0.5547130107879639
38,23,y,-,-,True,0.5119500160217285
38,23,t,-,-,True,0.6051468849182129
39,23,r,-,-,True,1.4021594524383545
39,23,y,-,-,True,0.6013984680175781
39,23,w,-,-,True,0.6158125400543213
39,23,b,-,-,True,0.7464168071746826
39,23,k,-,-,True,0.7030353546142578
39,23,r,-,-,True,0.554760217666626
39,23,w,-,-,True,0.530895471572876
39,23,k,m,m,True,0.5881526470184326
39,23,r,m,-,False,0.6407496929168701
39,23,v,-,-,True,0.5419695377349854
39,23,k,m,-,False,0.518118143081665
39,23,s,-,-,True,0.6226840019226074
39,23,p,-,-,True,0.5650177001953125
39,23,s,-,m,False,0.6306605339050293
39,23,s,m,-,False,0.5239403247833252
39,23,p,m,-,False,0.6434624195098877
39,23,b,-,-,True,0.5679824352264404
39,23,s,m,-,False,0.6197779178619385
39,23,c,-,-,True,0.6603941917419434
39,23,b,m,-,False,0.5382583141326904
39,23,s,m,-,False,0.8541669845581055
39,23,t,-,-,True,0.5426476001739502
39,23,q,-,-,True,0.5397579669952393
39,23,l,-,-,True,0.5535318851470947
40,23,f,-,-,True,2.1940693855285645
40,23,k,-,-,True,0.62088942527771
40,23,h,-,-,True,0.6019315719604492
40,23,k,-,-,True,0.5319552421569824
40,23,k,m,m,True,0.6089053153991699
40,23,h,m,-,False,0.5961532592773438
40,23,k,m,m,True,0.5325062274932861
40,23,g,-,-,True,0.5073533058166504
40,23,n,-,-,True,0.638883113861084
40,23,n,-,m,False,0.4931356906890869
40,23,g,m,-,False,0.5307939052581787
40,23,y,-,-,True,0.5212903022766113
40,23,f,-,-,True,0.4981842041015625
40,23,d,-,-,True,0.6004974842071533
40,23,d,-,m,False,0.6163876056671143
40,23,f,m,-,False,0.5223143100738525
40,23,d,m,-,False,0.7293198108673096
40,23,b,-,-,True,0.5464107990264893
40,23,f,m,-,False,0.5201857089996338
40,23,h,-,m,False,0.8309657573699951
40,23,l,-,-,True,0.6030941009521484
40,23,h,-,-,True,0.9997482299804688
40,23,p,-,-,True,0.6212968826293945
40,23,l,m,-,False,0.877577543258667
41,23,h,-,-,True,0.6058275699615479
41,23,w,-,-,True,0.8507678508758545
41,23,c,-,-,True,0.6141648292541504
41,23,c,-,-,True,0.5899548530578613
41,23,w,m,-,False,0.6406087875366211
41,23,y,-,-,True,0.5122606754302979
41,23,l,-,-,True,0.5924127101898193
41,23,w,m,m,True,0.7958984375
41,23,y,m,-,False,0.6212520599365234
41,23,l,m,-,False,0.5474348068237305
41,23,f,-,-,True,0.5445692539215088
41,23,f,-,m,False,0.6481080055236816
41,23,l,m,-,False,0.5379905700683594
41,23,v,-,-,True,0.5430810451507568
41,23,f,m,-,False,0.6307978630065918
41,23,d,-,-,True,0.9890782833099365
41,23,v,m,-,False,0.6109499931335449
41,23,j,-,-,True,0.5512242317199707
41,23,d,m,-,False,0.6176357269287109
41,23,w,-,-,True,0.5182700157165527
41,23,b,-,-,True,0.8344049453735352
41,23,f,-,-,True,0.570812463760376
41,23,f,-,m,False,0.5579051971435547
41,23,l,-,-,True,0.5477972030639648
42,23,x,-,-,True,0.9731895923614502
42,23,s,-,-,True,0.5243961811065674
42,23,h,-,-,True,0.56583571434021
42,23,b,-,-,True,1.474315881729126
42,23,s,m,-,False,0.5773007869720459
42,23,l,-,-,True,0.5819358825683594
42,23,l,-,m,False,0.5799939632415771
42,23,h,-,-,True,1.3866267204284668
42,23,y,-,-,True,0.5592772960662842
42,23,g,-,-,True,0.6352431774139404
42,23,h,m,-,False,0.6021699905395508
42,23,h,-,m,False,0.5801849365234375
42,23,g,m,-,False,0.5762341022491455
42,23,h,m,-,False,0.5142531394958496
42,23,h,m,m,True,1.4460463523864746
42,23,g,m,-,False,0.6180124282836914
42,23,h,m,-,False,0.9139983654022217
42,23,h,m,m,True,0.5829079151153564
42,23,t,-,-,True,0.6457080841064453
42,23,q,-,-,True,0.6100518703460693
42,23,k,-,-,True,0.5175893306732178
42,23,k,-,m,False,0.5818328857421875
42,23,z,-,-,True,0.6094245910644531
42,23,y,-,-,True,0.5479393005371094
43,23,d,-,-,True,0.6496710777282715
43,23,r,-,-,True,0.5088562965393066
43,23,k,-,-,True,0.9419474601745605
43,23,d,m,-,False,1.1510436534881592
43,23,r,m,-,False,0.515570878982544
43,23,l,-,-,True,0.48242807388305664
43,23,d,m,-,False,0.9535095691680908
43,23,s,-,-,True,0.576838493347168
43,23,s,-,m,False,0.4824991226196289
43,23,c,-,-,True,0.9073994159698486
43,23,p,-,-,True,0.5800094604492188
43,23,h,-,-,True,0.594970703125
43,23,c,m,-,False,0.5104382038116455
43,23,p,m,-,False,0.4840574264526367
43,23,y,-,-,True,0.4997847080230713
43,23,n,-,-,True,0.8115687370300293
43,23,t,-,-,True,0.6146652698516846
43,23,y,m,-,False,0.503424882888794
43,23,l,-,-,True,0.6056301593780518
43,23,t,m,m,True,0.5653197765350342
43,23,d,-,-,True,0.49524784088134766
43,23,p,-,-,True,0.5581035614013672
43,23,t,m,-,False,0.5340008735656738
43,23,c,-,-,True,0.5874099731445312
44,23,w,-,-,True,1.0491507053375244
44,23,j,-,-,True,0.4826033115386963
44,23,p,-,-,True,0.49423909187316895
44,23,n,-,-,True,0.48740577697753906
44,23,j,m,-,False,0.4952828884124756
44,23,v,-,-,True,1.579925298690796
44,23,t,-,-,True,0.6070349216461182
44,23,q,-,-,True,0.4918668270111084
44,23,v,m,-,False,0.571319580078125
44,23,l,-,-,True,0.6047196388244629
44,23,q,m,-,False,0.5717284679412842
44,23,v,m,-,False,0.9633646011352539
44,23,z,-,-,True,0.7006828784942627
44,23,p,-,-,True,0.49940967559814453
44,23,v,m,-,False,0.5051696300506592
44,23,z,m,-,False,1.1224262714385986
44,23,p,m,-,False,0.5240011215209961
44,23,v,m,-,False,0.503577709197998
44,23,q,-,-,True,0.5540897846221924
44,23,q,-,-,True,0.49619340896606445
44,23,g,-,-,True,0.5173280239105225
44,23,d,-,-,True,0.5239300727844238
44,23,n,-,-,True,0.5199098587036133
44,23,l,-,-,True,0.5861830711364746
45,23,h,-,-,True,0.9875578880310059
45,23,q,-,-,True,0.5501105785369873
45,23,b,-,-,True,0.4735708236694336
45,23,r,-,-,True,0.6035065650939941
45,23,q,m,-,False,0.4672877788543701
45,23,k,-,-,True,0.46996092796325684
45,23,j,-,-,True,0.5910885334014893
45,23,q,m,-,False,0.48478126525878906
45,23,l,-,-,True,0.5181713104248047
45,23,n,-,-,True,0.7604818344116211
45,23,q,m,-,False,0.5600965023040771
45,23,s,-,-,True,0.5112733840942383
45,23,n,m,-,False,0.747539758682251
45,23,q,m,-,False,0.5742127895355225
45,23,j,-,-,True,0.7688515186309814
45,23,j,-,m,False,1.0036687850952148
45,23,q,m,-,False,0.5051641464233398
45,23,z,-,-,True,0.6417214870452881
45,23,c,-,-,True,0.4991433620452881
45,23,v,-,-,True,0.5096993446350098
45,23,z,m,-,False,0.5751478672027588
45,23,c,m,-,False,0.5897524356842041
45,23,g,-,-,True,0.5481204986572266
45,23,v,-,-,True,0.5344147682189941
46,23,j,-,-,True,1.0963740348815918
46,23,t,-,-,True,0.49605488777160645
46,23,d,-,-,True,0.5496325492858887
46,23,j,m,-,False,0.4780282974243164
46,23,t,m,-,False,0.5139157772064209
46,23,j,-,-,True,0.4814596176147461
46,23,j,m,m,True,0.4879951477050781
46,23,r,-,-,True,0.48903560638427734
46,23,w,-,-,True,0.5864238739013672
46,23,n,-,-,True,0.598546028137207
46,23,r,m,-,False,0.8222329616546631
46,23,f,-,-,True,0.5218634605407715
46,23,t,-,m,False,0.5359539985656738
46,23,g,-,-,True,0.5022578239440918
46,23,f,m,-,False,0.6113793849945068
46,23,l,-,-,True,0.4992234706878662
46,23,g,m,-,False,0.4871387481689453
46,23,f,m,-,False,0.5388829708099365
46,23,x,-,-,True,0.7850720882415771
46,23,g,m,-,False,0.6165726184844971
46,23,r,-,-,True,0.9794576168060303
46,23,f,-,-,True,0.5024905204772949
46,23,c,-,-,True,0.5397286415100098
46,23,g,-,-,True,0.5049774646759033
47,23,j,-,-,True,1.2955007553100586
47,23,p,-,-,True,0.8794679641723633
47,23,t,-,-,True,0.5480809211730957
47,23,n,-,-,True,0.5499422550201416
47,23,t,-,-,True,0.4813399314880371
47,23,t,m,m,True,0.5748889446258545
47,23,r,-,-,True,0.6185948848724365
47,23,v,-,-,True,0.5529742240905762
47,23,b,-,-,True,0.5362484455108643
47,23,q,-,-,True,0.47643065452575684
47,23,v,m,-,False,0.6007952690124512
47,23,b,m,-,False,0.4809250831604004
47,23,q,m,-,False,0.5684189796447754
47,23,w,-,-,True,0.4719846248626709
47,23,d,-,-,True,0.47509002685546875
47,23,b,-,m,False,0.5624315738677979
47,23,w,m,-,False,0.47451186180114746
47,23,d,m,-,False,0.5674197673797607
47,23,y,-,-,True,0.9359555244445801
47,23,w,m,-,False,0.49190640449523926
47,23,s,-,-,True,0.605095386505127
47,23,r,-,m,False,0.5964384078979492
47,23,w,m,-,False,0.5089583396911621
47,23,f,-,-,True,0.4765481948852539
48,23,k,-,-,True,0.5315566062927246
48,23,g,-,-,True,0.4643089771270752
48,23,t,-,-,True,0.48313140869140625
48,23,k,m,-,False,0.4436495304107666
48,23,c,-,-,True,0.46083879470825195
48,23,d,-,-,True,0.5587027072906494
48,23,y,-,-,True,0.5937511920928955
48,23,b,-,-,True,0.5526144504547119
48,23,d,m,-,False,0.4688289165496826
48,23,d,-,m,False,0.5424540042877197
48,23,b,m,-,False,0.45207738876342773
48,23,h,-,-,True,0.549396276473999
48,23,g,-,-,True,0.4911818504333496
48,23,t,-,-,True,0.5564322471618652
48,23,y,-,-,True,0.47351932525634766
48,23,g,m,-,False,0.5167446136474609
48,23,t,m,-,False,0.5617849826812744
48,23,y,m,-,False,0.4627552032470703
48,23,c,-,-,True,0.4367411136627197
48,23,d,-,-,True,0.6096451282501221
48,23,b,-,-,True,0.5020365715026855
48,23,z,-,-,True,0.5835170745849609
48,23,d,m,-,False,0.4968581199645996
48,23,b,m,-,False,0.48434925079345703
49,23,w,-,-,True,0.5316667556762695
49,23,q,-,-,True,0.4731931686401367
49,23,l,-,-,True,0.5406985282897949
49,23,w,m,-,False,0.4793815612792969
49,23,q,m,-,False,0.4536740779876709
49,23,l,m,-,False,0.48381900787353516
49,23,w,m,-,False,0.48722314834594727
49,23,t,-,-,True,0.4775810241699219
49,23,z,-,-,True,0.5893511772155762
49,23,p,-,-,True,1.021087884902954
49,23,c,-,-,True,0.4584522247314453
49,23,l,-,-,True,0.5624549388885498
49,23,q,-,-,True,0.5025827884674072
49,23,c,m,-,False,0.5550000667572021
49,23,l,m,-,False,0.4812009334564209
49,23,z,-,-,True,0.4786975383758545
49,23,s,-,-,True,0.49605607986450195
49,23,v,-,-,True,0.4528043270111084
49,23,z,m,-,False,0.5649394989013672
49,23,t,-,-,True,0.46227216720581055
49,23,v,m,-,False,0.4869561195373535
49,23,x,-,m,False,0.9020276069641113
49,23,w,-,-,True,0.5099453926086426
49,23,l,-,-,True,0.48014092445373535
