block,trial_index,stimulus,target,response,correct,rt
0,23,t,-,-,True,2.043426990509033
0,23,r,-,-,True,0.5705118179321289
0,23,j,-,-,True,0.5904567241668701
0,23,g,-,-,True,0.7020242214202881
0,23,r,m,-,False,1.0753560066223145
0,23,k,-,-,True,0.8156538009643555
0,23,y,-,-,True,0.46384668350219727
0,23,q,-,-,True,0.6072287559509277
0,23,k,m,-,False,1.439399003982544
0,23,y,m,-,False,0.5693728923797607
0,23,y,-,m,False,0.4776017665863037
0,23,p,-,-,True,0.4977705478668213
0,23,r,-,-,True,0.4799537658691406
0,23,y,m,-,False,0.5145761966705322
0,23,p,m,-,False,0.7918059825897217
0,23,w,-,-,True,0.6628577709197998
0,23,v,-,-,True,0.9283852577209473
0,23,x,-,-,True,0.5548326969146729
0,23,w,m,-,False,0.5874571800231934
0,23,y,-,-,True,0.5461959838867188
0,23,l,-,-,True,1.0034093856811523
0,23,k,-,-,True,1.0325627326965332
0,23,y,m,-,False,0.7479503154754639
0,23,l,m,-,False,0.7151405811309814
1,23,w,-,-,True,0.8473320007324219
1,23,p,-,-,True,1.4604640007019043
1,23,z,-,-,True,1.1128506660461426
1,23,v,-,-,True,0.6481063365936279
1,23,l,-,-,True,0.6382067203521729
1,23,l,-,-,True,0.5919907093048096
1,23,v,m,-,False,0.4742403030395508
1,23,f,-,-,True,0.4494328498840332
1,23,l,m,m,True,0.49228906631469727
1,23,f,-,-,True,0.5038506984710693
1,23,f,m,-,False,0.624457597732544
1,23,x,-,-,True,0.6220712661743164
1,23,f,m,-,False,0.5790181159973145
1,23,c,-,-,True,0.5489835739135742
1,23,s,-,-,True,0.6594078540802002
1,23,f,m,-,False,0.42749714851379395
1,23,x,-,-,True,0.44710516929626465
1,23,v,-,-,True,0.6621725559234619
1,23,f,m,-,False,1.522618055343628
1,23,d,-,-,True,0.6246752738952637
1,23,n,-,-,True,0.9888575077056885
1,23,f,m,-,False,0.644615650177002
1,23,x,-,-,True,0.5407729148864746
1,23,n,m,-,False,0.5376696586608887
2,23,r,-,-,True,0.5402874946594238
2,23,y,-,-,True,0.7429895401000977
2,23,n,-,-,True,0.4988105297088623
2,23,r,m,-,False,0.49631667137145996
2,23,w,-,-,True,0.7844274044036865
2,23,n,m,-,False,1.4686884880065918
2,23,r,m,-,False,0.48236083984375
2,23,w,m,-,False,0.6271677017211914
2,23,b,-,-,True,1.0574469566345215
2,23,p,-,-,True,0.5033876895904541
2,23,z,-,-,True,0.4960324764251709
2,23,t,-,-,True,0.5200939178466797
2,23,p,m,-,False,0.4944181442260742
2,23,h,-,-,True,0.5923135280609131
2,23,z,-,-,True,0.6154215335845947
2,23,g,-,-,True,0.7241032123565674
2,23,p,-,-,True,0.6455793380737305
2,23,z,m,-,False,0.6046972274780273
2,23,w,-,-,True,0.8159294128417969
2,23,p,m,-,False,0.6251802444458008
2,23,j,-,-,True,0.5191068649291992
2,23,k,-,-,True,0.5140242576599121
2,23,f,-,-,True,0.5143947601318359
2,23,j,m,-,False,1.5754978656768799
3,23,p,-,-,True,0.45960402488708496
3,23,j,-,-,True,1.2634797096252441
3,23,t,-,-,True,0.5618700981140137
3,23,p,m,-,False,0.5412406921386719
3,23,z,-,-,True,0.48472142219543457
3,23,t,m,-,False,0.5880851745605469
3,23,p,m,-,False,0.9793739318847656
3,23,f,-,-,True,0.5112404823303223
3,23,h,-,-,True,1.080533742904663
3,23,x,-,-,True,1.0232179164886475
3,23,f,m,-,False,0.9313256740570068
3,23,p,-,-,True,0.9758853912353516
3,23,z,-,-,True,0.48214292526245117
3,23,h,-,-,True,0.6820967197418213
3,23,w,-,-,True,0.4893960952758789
3,23,z,m,-,False,0.6107895374298096
3,23,x,-,-,True,0.9590070247650146
3,23,y,-,-,True,0.5986950397491455
3,23,v,-,-,True,0.5398674011230469
3,23,x,m,-,False,0.5314979553222656
3,23,y,m,-,False,0.7390260696411133
3,23,c,-,-,True,0.6239309310913086
3,23,x,m,-,False,0.5253763198852539
3,23,c,-,-,True,0.4898524284362793
4,23,d,-,-,True,0.9773540496826172
4,23,x,-,-,True,0.4458646774291992
4,23,f,-,-,True,0.9115760326385498
4,23,d,m,-,False,0.43525147438049316
4,23,r,-,-,True,0.46527934074401855
4,23,q,-,-,True,0.5085306167602539
4,23,p,-,-,True,0.6105222702026367
4,23,j,-,-,True,0.6396734714508057
4,23,z,-,-,True,0.48720216751098633
4,23,p,m,-,False,0.9957826137542725
4,23,h,-,-,True,0.6177237033843994
4,23,z,m,-,False,0.7460517883300781
4,23,n,-,-,True,0.9760746955871582
4,23,h,m,-,False,0.5007212162017822
4,23,z,m,-,False,0.5017440319061279
4,23,g,-,-,True,0.5330452919006348
4,23,h,m,-,False,0.5066876411437988
4,23,z,m,-,False,0.4627835750579834
4,23,l,-,-,True,0.6898260116577148
4,23,h,m,-,False,0.6053531169891357
4,23,c,-,-,True,0.4891357421875
4,23,s,-,-,True,0.6929047107696533
4,23,v,-,-,True,0.5208618640899658
4,23,f,-,-,True,0.5450069904327393
5,23,n,-,-,True,0.5967774391174316
5,23,n,-,-,True,0.616793155670166
5,23,j,-,-,True,0.719517707824707
5,23,g,-,-,True,0.5543203353881836
5,23,f,-,-,True,0.921898365020752
5,23,w,-,-,True,0.576209306716919
5,23,g,m,-,False,0.5067746639251709
5,23,f,m,-,False,0.663689374923706
5,23,w,m,-,False,1.0169646739959717
5,23,g,m,-,False,0.45934462547302246
5,23,z,-,-,True,0.5017175674438477
5,23,w,m,-,False,0.509040117263794
5,23,g,m,-,False,0.7161972522735596
5,23,v,-,-,True,0.4579756259918213
5,23,x,-,-,True,0.5397849082946777
5,23,f,-,-,True,0.5952739715576172
5,23,q,-,-,True,0.7344255447387695
5,23,n,-,-,True,0.5360591411590576
5,23,f,m,-,False,0.5411837100982666
5,23,v,-,-,True,0.5125677585601807
5,23,n,m,-,False,0.5105025768280029
5,23,w,-,-,True,0.6316614151000977
5,23,y,-,-,True,0.5063376426696777
5,23,f,-,-,True,0.9714634418487549
6,23,f,-,-,True,0.5637032985687256
6,23,y,-,-,True,0.5608794689178467
6,23,n,-,-,True,0.4668765068054199
6,23,f,m,-,False,0.7336723804473877
6,23,y,m,-,False,0.4792947769165039
6,23,r,-,-,True,0.5821809768676758
6,23,f,m,-,False,0.4843451976776123
6,23,y,m,-,False,0.5651938915252686
6,23,r,m,-,False,0.5861935615539551
6,23,g,-,-,True,0.5187654495239258
6,23,j,-,-,True,0.48555421829223633
6,23,b,-,-,True,0.7058968544006348
6,23,g,m,-,False,0.508763313293457
6,23,h,-,-,True,0.749802827835083
6,23,f,-,-,True,0.6725952625274658
6,23,g,m,-,False,0.5938544273376465
6,23,h,m,-,False,0.6147475242614746
6,23,t,-,-,True,0.48172569274902344
6,23,x,-,-,True,0.4699978828430176
6,23,q,-,-,True,0.4693639278411865
6,23,n,-,-,True,0.5152428150177002
6,23,t,-,-,True,0.5139453411102295
6,23,j,-,-,True,0.4913928508758545
6,23,d,-,-,True,0.5305860042572021
7,23,z,-,-,True,0.8879292011260986
7,23,n,-,-,True,0.5524141788482666
7,23,y,-,-,True,0.46375107765197754
7,23,p,-,-,True,0.6854496002197266
7,23,n,m,-,False,0.9326620101928711
7,23,y,m,m,True,0.46906423568725586
7,23,l,-,-,True,0.4416837692260742
7,23,j,-,-,True,0.4804365634918213
7,23,y,m,-,False,0.5766885280609131
7,23,c,-,-,True,0.4489932060241699
7,23,b,-,-,True,0.5382139682769775
7,23,y,m,-,False,0.5553817749023438
7,23,d,-,-,True,0.49261975288391113
7,23,b,m,-,False,0.5574514865875244
7,23,v,-,-,True,0.49797773361206055
7,23,d,m,-,False,0.7488868236541748
7,23,p,-,-,True,0.9703667163848877
7,23,c,-,-,True,0.5104804039001465
7,23,d,m,-,False,0.4873926639556885
7,23,v,-,-,True,0.48600029945373535
7,23,r,-,-,True,0.49063849449157715
7,23,c,-,-,True,0.48663878440856934
7,23,v,m,-,False,0.5252161026000977
7,23,w,-,-,True,1.4439547061920166
8,23,h,-,-,True,0.560035228729248
8,23,j,-,-,True,0.608802080154419
8,23,f,-,-,True,1.468700885772705
8,23,q,-,-,True,0.5202865600585938
8,23,p,-,-,True,0.5797202587127686
8,23,t,-,-,True,0.8426434993743896
8,23,q,m,-,False,0.48043203353881836
8,23,n,-,-,True,0.483551025390625
8,23,w,-,-,True,1.5943386554718018
8,23,y,-,-,True,0.5201528072357178
8,23,n,m,-,False,0.5104160308837891
8,23,b,-,-,True,0.6119198799133301
8,23,d,-,-,True,1.0287084579467773
8,23,t,-,-,True,0.5676651000976562
8,23,b,m,-,False,0.6785633563995361
8,23,z,-,-,True,0.4824995994567871
8,23,h,-,-,True,0.47045230865478516
8,23,b,m,-,False,0.4914133548736572
8,23,n,-,-,True,0.42914509773254395
8,23,h,m,-,False,0.46483469009399414
8,23,b,m,-,False,1.4632043838500977
8,23,n,m,-,False,0.5311448574066162
8,23,h,m,-,False,0.5638904571533203
8,23,h,-,m,False,0.4948709011077881
9,23,p,-,-,True,0.5809421539306641
9,23,v,-,-,True,0.5507984161376953
9,23,q,-,-,True,0.4491431713104248
9,23,d,-,-,True,0.6946184635162354
9,23,q,-,-,True,0.6912870407104492
9,23,q,m,m,True,0.44437456130981445
9,23,d,m,-,False,0.4609260559082031
9,23,q,m,-,False,0.45624375343322754
9,23,p,-,-,True,0.4474008083343506
9,23,g,-,-,True,0.43035364151000977
9,23,q,m,-,False,0.47335028648376465
9,23,j,-,-,True,0.4494471549987793
9,23,l,-,-,True,0.6703729629516602
9,23,q,m,-,False,0.9244039058685303
9,23,q,-,m,False,0.4338548183441162
9,23,t,-,-,True,0.5758697986602783
9,23,q,m,-,False,0.4770541191101074
9,23,l,-,-,True,0.5077521800994873
9,23,t,m,-,False,1.448150396347046
9,23,v,-,-,True,0.5793607234954834
9,23,x,-,-,True,0.4927802085876465
9,23,t,m,-,False,0.47408294677734375
9,23,l,-,-,True,0.5809259414672852
9,23,l,-,m,False,0.4944319725036621
10,23,l,-,-,True,0.521984338760376
10,23,q,-,-,True,0.907102108001709
10,23,b,-,-,True,0.42520880699157715
10,23,q,-,-,True,0.46905016899108887
10,23,q,m,m,True,0.45177650451660156
10,23,b,m,-,False,0.44707822799682617
10,23,q,m,-,False,0.4456143379211426
10,23,n,-,-,True,0.4492366313934326
10,23,l,-,-,True,0.5578172206878662
10,23,k,-,-,True,0.5923185348510742
10,23,n,m,-,False,0.5665678977966309
10,23,g,-,-,True,0.46153926849365234
10,23,d,-,-,True,0.5612359046936035
10,23,n,m,-,False,0.4492805004119873
10,23,g,m,-,False,0.5047938823699951
10,23,z,-,-,True,0.7111005783081055
10,23,n,m,-,False,0.6794605255126953
10,23,d,-,-,True,0.5814921855926514
10,23,z,m,-,False,0.4227602481842041
10,23,h,-,-,True,0.9186944961547852
10,23,g,-,-,True,0.5686166286468506
10,23,d,-,-,True,0.5094239711761475
10,23,x,-,-,True,0.4815056324005127
10,23,p,-,-,True,0.4853329658508301
11,23,r,-,-,True,0.5593008995056152
11,23,k,-,-,True,0.466137170791626
11,23,x,-,-,True,0.4595367908477783
11,23,y,-,-,True,0.4599025249481201
11,23,p,-,-,True,0.4742770195007324
11,23,f,-,-,True,0.5538394451141357
11,23,y,m,-,False,0.4651498794555664
11,23,y,-,m,False,0.46692800521850586
11,23,t,-,-,True,0.7534036636352539
11,23,f,-,-,True,0.4847104549407959
11,23,v,-,-,True,0.47503185272216797
11,23,y,-,-,True,0.4669027328491211
11,23,z,-,-,True,0.4883382320404053
11,23,t,-,-,True,0.4705204963684082
11,23,y,m,-,False,0.5064601898193359
11,23,z,m,-,False,0.9306240081787109
11,23,b,-,-,True,0.4869682788848877
11,23,w,-,-,True,0.5864658355712891
11,23,r,-,-,True,0.7322149276733398
11,23,b,m,-,False,0.4953188896179199
11,23,w,m,-,False,0.49623918533325195
11,23,r,m,-,False,0.568505048751831
11,23,b,m,-,False,0.7346868515014648
11,23,w,m,-,False,0.4929225444793701
12,23,n,-,-,True,1.15571928024292
12,23,f,-,-,True,0.4911017417907715
12,23,x,-,-,True,0.9697329998016357
12,23,v,-,-,True,1.4452924728393555
12,23,d,-,-,True,0.6120693683624268
12,23,x,m,-,False,0.5887365341186523
12,23,b,-,-,True,0.9720215797424316
12,23,h,-,-,True,0.46707797050476074
12,23,x,m,-,False,0.9301426410675049
12,23,x,-,m,False,0.5021576881408691
12,23,h,m,-,False,0.5802280902862549
12,23,r,-,-,True,0.5988965034484863
12,23,l,-,-,True,0.5073103904724121
12,23,h,m,-,False,0.839667558670044
12,23,v,-,-,True,0.9606401920318604
12,23,y,-,-,True,0.6256580352783203
12,23,t,-,-,True,0.5252742767333984
12,23,n,-,-,True,0.49591565132141113
12,23,y,m,-,False,0.5866384506225586
12,23,n,-,-,True,0.4812138080596924
12,23,n,m,m,True,1.0449950695037842
12,23,y,m,-,False,1.0366182327270508
12,23,n,m,-,False,0.4652690887451172
12,23,k,-,-,True,0.5754711627960205
13,23,p,-,-,True,1.1907322406768799
13,23,p,-,-,True,0.7509655952453613
13,23,z,-,-,True,0.6152927875518799
13,23,w,-,-,True,1.119624376296997
13,23,l,-,-,True,0.5158932209014893
13,23,z,m,-,False,0.5140688419342041
13,23,t,-,-,True,0.6953005790710449
13,23,l,m,-,False,0.489213228225708
13,23,z,m,-,False,1.0146002769470215
13,23,p,-,-,True,0.5619549751281738
13,23,l,m,-,False,0.5827245712280273
13,23,z,m,-,False,0.5243265628814697
13,23,p,m,-,False,0.5031399726867676
13,23,h,-,-,True,0.6009135246276855
13,23,x,-,-,True,0.6977229118347168
13,23,x,-,m,False,0.59539794921875
13,23,h,m,-,False,0.9027032852172852
13,23,n,-,-,True,1.2803950309753418
13,23,n,-,m,False,0.6197042465209961
13,23,b,-,-,True,1.053002119064331
13,23,v,-,-,True,1.1220808029174805
13,23,s,-,-,True,0.5463719367980957
13,23,f,-,-,True,0.6224939823150635
13,23,v,m,-,False,0.5152382850646973
14,23,f,-,-,True,0.8753321170806885
14,23,c,-,-,True,0.6534276008605957
14,23,t,-,-,True,0.45648717880249023
14,23,n,-,-,True,0.5414066314697266
14,23,c,m,-,False,0.421781063079834
14,23,t,m,-,False,0.5596294403076172
14,23,n,m,-,False,0.4570591449737549
14,23,k,-,-,True,0.45889782905578613
14,23,g,-,-,True,0.5742099285125732
14,23,d,-,-,True,0.4872450828552246
14,23,k,m,-,False,0.5266931056976318
14,23,k,-,m,False,0.4690699577331543
14,23,d,m,-,False,0.45910048484802246
14,23,f,-,-,True,0.5433602333068848
14,23,x,-,-,True,0.4789390563964844
14,23,y,-,-,True,1.0113589763641357
14,23,s,-,-,True,0.4752495288848877
14,23,r,-,-,True,0.5143921375274658
14,23,y,m,-,False,1.4432547092437744
14,23,s,m,-,False,0.42201924324035645
14,23,y,-,-,True,0.9965324401855469
14,23,f,-,-,True,0.4887847900390625
14,23,s,m,-,False,0.5040643215179443
14,23,k,-,-,True,0.5589332580566406
15,23,z,-,-,True,0.5521275997161865
15,23,s,-,-,True,0.4407472610473633
15,23,n,-,-,True,0.7014968395233154
15,23,f,-,-,True,0.9392814636230469
15,23,s,m,-,False,0.4349708557128906
15,23,l,-,-,True,0.669703483581543
15,23,b,-,-,True,0.4504251480102539
15,23,k,-,-,True,0.4589564800262451
15,23,x,-,-,True,1.4345273971557617
15,23,b,m,-,False,0.41782426834106445
15,23,k,m,-,False,0.9743804931640625
15,23,g,-,-,True,0.5132007598876953
15,23,w,-,-,True,0.5669207572937012
15,23,k,m,-,False,0.6319248676300049
15,23,d,-,-,True,0.6925604343414307
15,23,w,m,-,False,0.5474908351898193
15,23,q,-,-,True,0.6649885177612305
15,23,d,m,-,False,0.5692427158355713
15,23,l,-,-,True,0.5517561435699463
15,23,t,-,-,True,0.5746402740478516
15,23,d,m,-,False,0.6372952461242676
15,23,g,-,-,True,0.5125424861907959
15,23,t,m,-,False,0.5015466213226318
15,23,y,-,-,True,0.563225507736206
16,23,c,-,-,True,1.023418664932251
16,23,p,-,-,True,0.5913083553314209
16,23,z,-,-,True,0.4624440670013428
16,23,c,m,-,False,0.5399539470672607
16,23,p,m,-,False,0.5185215473175049
16,23,z,m,-,False,0.4749579429626465
16,23,d,-,-,True,0.4891641139984131
16,23,p,m,m,True,0.42087745666503906
16,23,f,-,-,True,0.6146275997161865
16,23,s,-,-,True,0.48757505416870117
16,23,r,-,-,True,1.4255707263946533
16,23,n,-,-,True,0.47216176986694336
16,23,x,-,-,True,0.5600833892822266
16,23,r,m,-,False,0.5802958011627197
16,23,h,-,-,True,0.5753095149993896
16,23,z,-,-,True,0.47546958923339844
16,23,r,m,-,False,0.5689778327941895
16,23,x,-,-,True,0.8200571537017822
16,23,c,-,-,True,0.5783736705780029
16,23,k,-,-,True,0.5467524528503418
16,23,k,-,m,False,0.4702110290527344
16,23,c,m,-,False,0.7952501773834229
16,23,p,-,m,False,0.9746510982513428
16,23,k,m,-,False,0.6081502437591553
17,23,g,-,-,True,1.4305353164672852
17,23,y,-,-,True,0.46616196632385254
17,23,d,-,-,True,0.49570226669311523
17,23,p,-,-,True,0.571580171585083
17,23,y,m,-,False,0.5091383457183838
17,23,p,-,-,True,0.4923403263092041
17,23,r,-,-,True,0.48716259002685547
17,23,g,-,-,True,0.5004124641418457
17,23,p,m,m,True,0.9834673404693604
17,23,r,m,-,False,0.5205299854278564
17,23,r,-,-,True,0.9358761310577393
17,23,f,-,-,True,0.5079751014709473
17,23,h,-,-,True,0.6035070419311523
17,23,r,m,m,True,1.0293285846710205
17,23,q,-,-,True,0.45732975006103516
17,23,h,m,-,False,0.9660778045654297
17,23,c,-,-,True,0.9960076808929443
17,23,n,-,-,True,1.150334119796753
17,23,h,m,-,False,0.6499373912811279
17,23,k,-,-,True,1.0895869731903076
17,23,p,-,-,True,0.45094728469848633
17,23,h,m,-,False,0.4457893371582031
17,23,k,m,-,False,1.01474928855896
17,23,r,-,m,False,0.6302447319030762
18,23,q,-,-,True,1.1146869659423828
18,23,z,-,-,True,0.4812443256378174
18,23,q,-,-,True,0.6637208461761475
18,23,g,-,-,True,0.7261419296264648
18,23,z,m,-,False,0.4322829246520996
18,23,d,-,-,True,0.7297670841217041
18,23,g,m,-,False,0.9922871589660645
18,23,z,m,-,False,0.49898409843444824
18,23,d,m,-,False,1.0092833042144775
18,23,l,-,-,True,0.5219171047210693
18,23,w,-,-,True,0.5947291851043701
18,23,v,-,-,True,0.522059440612793
18,23,n,-,-,True,0.6350994110107422
18,23,r,-,-,True,0.48787951469421387
18,23,n,-,-,True,0.4965682029724121
18,23,n,m,m,True,0.4734930992126465
18,23,r,m,-,False,0.9812994003295898
18,23,n,m,m,True,0.7448821067810059
18,23,s,-,-,True,0.499406099319458
18,23,l,-,-,True,0.6586289405822754
18,23,f,-,-,True,0.5547401905059814
18,23,s,m,-,False,0.9271390438079834
18,23,w,-,-,True,0.6211261749267578
18,23,w,-,m,False,0.5960118770599365
19,23,d,-,-,True,1.0660300254821777
19,23,h,-,-,True,0.9740161895751953
19,23,g,-,-,True,0.9335715770721436
19,23,x,-,-,True,0.9844655990600586
19,23,h,m,-,False,0.48597192764282227
19,23,n,-,-,True,0.5026555061340332
19,23,j,-,-,True,0.7296841144561768
19,23,z,-,-,True,1.0558772087097168
19,23,n,m,-,False,0.6367146968841553
19,23,w,-,-,True,0.46845436096191406
19,23,w,-,m,False,0.4880697727203369
19,23,g,-,-,True,0.5837817192077637
19,23,w,m,-,False,0.6376922130584717
19,23,w,m,m,True,0.6986169815063477
19,23,n,-,-,True,0.5790431499481201
19,23,y,-,-,True,0.5643770694732666
19,23,p,-,-,True,0.607957124710083
19,23,j,-,-,True,0.6221864223480225
19,23,y,m,-,False,0.683236837387085
19,23,p,m,-,False,0.6235604286193848
19,23,d,-,-,True,0.517340898513794
19,23,c,-,-,True,0.5572521686553955
19,23,p,m,-,False,1.5295326709747314
19,23,d,m,-,False,0.6825087070465088
20,23,k,-,-,True,0.9055263996124268
20,23,p,-,-,True,0.4715576171875
20,23,d,-,-,True,0.622016429901123
20,23,k,m,-,False,0.4902207851409912
20,23,p,m,m,True,0.6341967582702637
20,23,d,m,-,False,0.7298235893249512
20,23,s,-,-,True,0.49349355697631836
20,23,p,m,-,False,0.5028040409088135
20,23,q,-,-,True,0.4841759204864502
20,23,j,-,-,True,0.669734001159668
20,23,d,-,-,True,0.9539322853088379
20,23,q,m,-,False,0.44205474853515625
20,23,p,-,m,False,0.6191480159759521
20,23,d,m,-,False,0.4604654312133789
20,23,n,-,-,True,0.5383408069610596
20,23,h,-,-,True,0.5942118167877197
20,23,n,-,-,True,0.5943191051483154
20,23,j,-,-,True,0.5071332454681396
20,23,h,m,-,False,0.47873783111572266
20,23,p,-,-,True,0.605799674987793
20,23,f,-,-,True,0.5438642501831055
20,23,w,-,-,True,0.5418479442596436
20,23,p,m,m,True,0.9615411758422852
20,23,t,-,-,True,0.5690317153930664
21,23,j,-,-,True,0.5340700149536133
21,23,x,-,-,True,0.7262108325958252
21,23,y,-,-,True,1.479205846786499
21,23,w,-,-,True,0.5757570266723633
21,23,d,-,-,True,0.581855297088623
21,23,y,m,-,False,1.1109120845794678
21,23,v,-,-,True,0.5321390628814697
21,23,s,-,-,True,0.49779486656188965
21,23,t,-,-,True,0.47887635231018066
21,23,v,m,-,False,1.0173511505126953
21,23,s,m,-,False,0.5755722522735596
21,23,b,-,-,True,0.6011807918548584
21,23,v,m,-,False,0.799816370010376
21,23,s,m,-,False,0.48163414001464844
21,23,h,-,-,True,0.7183473110198975
21,23,k,-,-,True,0.7172508239746094
21,23,s,m,-,False,0.5664591789245605
21,23,j,-,-,True,0.5491788387298584
21,23,j,-,m,False,0.7261345386505127
21,23,b,-,-,True,0.5800440311431885
21,23,s,-,-,True,0.989194393157959
21,23,z,-,-,True,0.6452090740203857
21,23,b,m,-,False,1.0179884433746338
21,23,s,m,-,False,0.5439391136169434
22,23,z,-,-,True,0.865121603012085
22,23,r,-,-,True,0.43453240394592285
22,23,j,-,-,True,0.48487186431884766
22,23,x,-,-,True,0.5486690998077393
22,23,t,-,-,True,0.47563767433166504
22,23,q,-,-,True,0.9909467697143555
22,23,v,-,-,True,0.49698567390441895
22,23,r,-,-,True,0.9141318798065186
22,23,q,m,-,False,0.4976613521575928
22,23,x,-,-,True,0.6463534832000732
22,23,r,m,m,True,0.8962862491607666
22,23,t,-,-,True,0.599719762802124
22,23,x,m,-,False,0.4698169231414795
22,23,v,-,-,True,1.4725892543792725
22,23,t,m,-,False,0.9986839294433594
22,23,z,-,-,True,1.4829750061035156
22,23,z,-,-,True,0.44566798210144043
22,23,n,-,-,True,0.53603196144104
22,23,z,m,m,True,0.5135581493377686
22,23,p,-,-,True,0.522099494934082
22,23,n,m,-,False,0.5649552345275879
22,23,j,-,-,True,0.49916577339172363
22,23,p,m,-,False,0.4963068962097168
22,23,n,m,-,False,0.5027167797088623
23,23,c,-,-,True,0.567490816116333
23,23,j,-,-,True,0.9852936267852783
23,23,h,-,-,True,0.4749183654785156
23,23,v,-,-,True,0.5548100471496582
23,23,j,m,-,False,0.44154787063598633
23,23,y,-,-,True,1.003246784210205
23,23,d,-,-,True,0.49392032623291016
23,23,w,-,-,True,0.5038290023803711
23,23,t,-,-,True,0.5314435958862305
23,23,y,-,-,True,0.4821133613586426
23,23,k,-,-,True,1.303499460220337
23,23,v,-,-,True,0.7919838428497314
23,23,n,-,-,True,0.46944546699523926
23,23,t,-,-,True,0.537738561630249
23,23,v,m,-,False,0.5066328048706055
23,23,n,m,-,False,0.45176053047180176
23,23,t,m,-,False,0.570608377456665
23,23,v,m,-,False,0.5139305591583252
23,23,n,m,-,False,0.6222066879272461
23,23,t,m,-,False,0.5125422477722168
23,23,r,-,-,True,0.9391114711761475
23,23,b,-,-,True,0.5053856372833252
23,23,d,-,-,True,0.8861701488494873
23,23,r,m,-,False,0.4986073970794678
24,23,v,-,-,True,1.2215633392333984
24,23,g,-,-,True,0.49660682678222656
24,23,h,-,-,True,0.5094130039215088
24,23,c,-,-,True,0.7409842014312744
24,23,g,m,-,False,0.49414730072021484
24,23,h,m,-,False,1.0135457515716553
24,23,c,m,-,False,0.9729032516479492
24,23,v,-,-,True,1.4708449840545654
24,23,w,-,-,True,1.0549521446228027
24,23,y,-,-,True,0.4888627529144287
24,23,r,-,-,True,0.48208141326904297
24,23,w,m,-,False,0.44549036026000977
24,23,y,m,-,False,0.7263884544372559
24,23,q,-,-,True,1.140172004699707
24,23,z,-,-,True,0.7021658420562744
24,23,h,-,-,True,0.950507402420044
24,23,f,-,-,True,0.5080857276916504
24,23,z,m,-,False,0.5985198020935059
24,23,h,m,-,False,0.49653053283691406
24,23,x,-,-,True,0.5628750324249268
24,23,v,-,-,True,0.5087294578552246
24,23,h,m,-,False,0.6186692714691162
24,23,k,-,-,True,0.576676607131958
24,23,p,-,-,True,0.5087037086486816
25,23,y,-,-,True,1.058293104171753
25,23,l,-,-,True,0.458019495010376
25,23,l,-,-,True,0.8214795589447021
25,23,q,-,-,True,1.0182688236236572
25,23,l,m,m,True,0.6490664482116699
25,23,x,-,-,True,0.4569394588470459
25,23,s,-,-,True,0.966224193572998
25,23,j,-,-,True,0.47124171257019043
25,23,x,m,-,False,0.5067260265350342
25,23,s,m,-,False,0.47563743591308594
25,23,j,m,-,False,0.48301124572753906
25,23,d,-,-,True,0.7805969715118408
25,23,k,-,-,True,0.4440615177154541
25,23,q,-,-,True,0.9579360485076904
25,23,s,-,-,True,0.49002814292907715
25,23,d,-,-,True,0.5036237239837646
25,23,z,-,-,True,0.4719388484954834
25,23,s,m,-,False,0.4151947498321533
25,23,h,-,-,True,0.46279215812683105
25,23,z,m,-,False,0.5751132965087891
25,23,p,-,-,True,1.4508981704711914
25,23,h,m,-,False,0.5979185104370117
25,23,z,m,-,False,0.49040865898132324
25,23,y,-,-,True,0.6273362636566162
26,23,j,-,-,True,1.0644681453704834
26,23,t,-,-,True,0.5407588481903076
26,23,f,-,-,True,0.9903895854949951
26,23,j,m,-,False,0.5029690265655518
26,23,t,m,-,False,0.6359353065490723
26,23,f,m,-,False,0.723686695098877
26,23,p,-,-,True,0.5674734115600586
26,23,t,m,m,True,0.5769548416137695
26,23,y,-,-,True,0.47165918350219727
26,23,f,-,-,True,0.5821628570556641
26,23,x,-,-,True,1.0011532306671143
26,23,c,-,-,True,0.4816017150878906
26,23,k,-,-,True,0.5764892101287842
26,23,q,-,-,True,0.47482848167419434
26,23,j,-,-,True,0.4855203628540039
26,23,r,-,-,True,0.9921889305114746
26,23,q,m,-,False,0.6433594226837158
26,23,g,-,-,True,0.49524974822998047
26,23,f,-,m,False,0.5083730220794678
26,23,q,m,-,False,0.48955726623535156
26,23,g,m,-,False,0.525810956954956
26,23,f,m,m,True,0.7125000953674316
26,23,h,-,-,True,0.4865283966064453
26,23,k,-,-,True,0.5328912734985352
27,23,w,-,-,True,1.9668805599212646
27,23,q,-,-,True,0.42633891105651855
27,23,s,-,-,True,0.5167956352233887
27,23,w,m,-,False,0.540600061416626
27,23,t,-,-,True,0.4636728763580322
27,23,s,m,m,True,1.6517817974090576
27,23,w,m,-,False,0.624549150466919
27,23,z,-,-,True,1.1853415966033936
27,23,g,-,-,True,0.6138730049133301
27,23,j,-,-,True,0.5406155586242676
27,23,h,-,-,True,0.46376752853393555
27,23,g,m,-,False,0.7118055820465088
27,23,y,-,-,True,0.4766838550567627
27,23,h,m,-,False,0.521277904510498
27,23,c,-,-,True,0.48568224906921387
27,23,y,m,-,False,0.4120676517486572
27,23,q,-,-,True,0.7183835506439209
27,23,d,-,-,True,0.47444796562194824
27,23,r,-,-,True,0.6142308712005615
27,23,q,m,m,True,1.4307787418365479
27,23,r,-,-,True,0.5166752338409424
27,23,x,-,-,True,0.9597480297088623
27,23,c,-,-,True,0.4764070510864258
27,23,r,m,-,False,0.47949719429016113
28,23,c,-,-,True,0.45885419845581055
28,23,j,-,-,True,0.7132077217102051
28,23,x,-,-,True,0.46735239028930664
28,23,f,-,-,True,0.4645347595214844
28,23,t,-,-,True,0.4611508846282959
28,23,x,m,-,False,0.5362005233764648
28,23,c,-,-,True,0.5625357627868652
28,23,t,m,-,False,0.5634808540344238
28,23,q,-,-,True,0.5286974906921387
28,23,c,m,-,False,0.45601725578308105
28,23,r,-,-,True,0.5403616428375244
28,23,q,m,-,False,0.6708929538726807
28,23,c,m,-,False,0.5127980709075928
28,23,f,-,-,True,0.4363236427307129
28,23,v,-,-,True,0.8013472557067871
28,23,t,-,-,True,0.5063819885253906
28,23,f,m,-,False,0.6328613758087158
28,23,v,m,-,False,1.010009765625
28,23,t,m,-,False,0.4855198860168457
28,23,v,-,-,True,0.5625331401824951
28,23,r,-,-,True,0.5495679378509521
28,23,l,-,-,True,0.5066452026367188
28,23,y,-,-,True,0.4451904296875
28,23,p,-,-,True,0.6380412578582764
29,23,z,-,-,True,1.5914983749389648
29,23,w,-,-,True,0.4503507614135742
29,23,c,-,-,True,0.44309115409851074
29,23,z,m,-,False,0.6460950374603271
29,23,w,m,-,False,0.4796130657196045
29,23,s,-,-,True,0.555532693862915
29,23,z,m,-,False,0.917975664138794
29,23,q,-,-,True,0.5706214904785156
29,23,s,m,-,False,0.5401937961578369
29,23,z,m,-,False,0.45783233642578125
29,23,v,-,-,True,0.4565298557281494
29,23,s,m,-,False,0.4574007987976074
29,23,z,m,-,False,0.5826518535614014
29,23,g,-,-,True,0.5436289310455322
29,23,z,-,-,True,0.4974350929260254
29,23,t,-,-,True,0.7400515079498291
29,23,w,-,-,True,0.9885475635528564
29,23,w,-,m,False,0.47971677780151367
29,23,g,-,-,True,0.4722621440887451
29,23,w,m,-,False,0.5612204074859619
29,23,s,-,-,True,0.4720766544342041
29,23,b,-,-,True,0.6888864040374756
29,23,q,-,-,True,1.0028412342071533
29,23,n,-,-,True,0.4666256904602051
30,23,p,-,-,True,0.7078256607055664
30,23,h,-,-,True,0.45817089080810547
30,23,y,-,-,True,1.3988068103790283
30,23,x,-,-,True,0.42813634872436523
30,23,h,m,-,False,0.5868279933929443
30,23,y,m,-,False,0.9538836479187012
30,23,b,-,-,True,0.7288074493408203
30,23,k,-,-,True,0.4376051425933838
30,23,g,-,-,True,0.9247682094573975
30,23,y,-,-,True,0.5690906047821045
30,23,y,-,m,False,0.5689356327056885
30,23,v,-,-,True,0.550123929977417
30,23,y,m,-,False,0.9187121391296387
30,23,c,-,-,True,0.5337486267089844
30,23,h,-,-,True,0.5447137355804443
30,23,y,m,-,False,1.3436262607574463
30,23,c,m,-,False,0.49857187271118164
30,23,b,-,-,True,0.5827105045318604
30,23,k,-,-,True,0.4976773262023926
30,23,c,m,-,False,0.47510242462158203
30,23,t,-,-,True,0.5101633071899414
30,23,k,m,-,False,1.4925425052642822
30,23,z,-,-,True,0.6629390716552734
30,23,t,m,-,False,0.5016658306121826
31,23,t,-,-,True,0.5605373382568359
31,23,r,-,-,True,0.5526082515716553
31,23,d,-,-,True,0.6994574069976807
31,23,f,-,-,True,0.4967372417449951
31,23,c,-,-,True,0.48738622665405273
31,23,d,m,-,False,0.444932222366333
31,23,f,m,-,False,0.549851655960083
31,23,x,-,-,True,0.5234754085540771
31,23,g,-,-,True,0.7367310523986816
31,23,f,m,m,True,0.5436534881591797
31,23,x,m,-,False,0.6055305004119873
31,23,g,m,-,False,0.5825788974761963
31,23,f,m,-,False,0.9130167961120605
31,23,h,-,-,True,0.9267613887786865
31,23,g,m,-,False,0.512535572052002
31,23,d,-,-,True,0.4953036308288574
31,23,t,-,-,True,0.4573838710784912
31,23,r,-,-,True,0.7356562614440918
31,23,s,-,-,True,0.4954040050506592
31,23,h,-,-,True,0.49906158447265625
31,23,f,-,-,True,0.4671173095703125
31,23,s,m,-,False,0.5911076068878174
31,23,v,-,-,True,0.5075328350067139
31,23,q,-,-,True,0.4877488613128662
32,23,k,-,-,True,0.5723323822021484
32,23,b,-,-,True,1.445026159286499
32,23,j,-,-,True,0.7106368541717529
32,23,v,-,-,True,0.4847443103790283
32,23,z,-,-,True,0.46298956871032715
32,23,s,-,-,True,0.6925160884857178
32,23,g,-,-,True,0.5393054485321045
32,23,z,m,-,False,0.5354418754577637
32,23,x,-,-,True,0.6128871440887451
32,23,g,m,-,False,0.5576558113098145
32,23,z,m,m,True,0.47803711891174316
32,23,k,-,-,True,0.46604156494140625
32,23,g,m,-,False,0.48973512649536133
32,23,t,-,-,True,0.9381978511810303
32,23,k,m,-,False,0.43385910987854004
32,23,l,-,-,True,0.5782291889190674
32,23,t,m,-,False,0.556265115737915
32,23,k,m,-,False,0.5895304679870605
32,23,x,-,-,True,0.5669474601745605
32,23,r,-,-,True,0.421558141708374
32,23,y,-,-,True,0.488950252532959
32,23,y,-,-,True,0.5765030384063721
32,23,r,m,-,False,0.4364137649536133
32,23,s,-,-,True,0.49929046630859375
33,23,k,-,-,True,0.5531277656555176
33,23,j,-,-,True,0.4607856273651123
33,23,w,-,-,True,0.7206735610961914
33,23,j,-,-,True,0.44515562057495117
33,23,j,m,m,True,0.42601609230041504
33,23,x,-,-,True,0.5270605087280273
33,23,j,m,-,False,0.4690685272216797
33,23,c,-,-,True,0.5900871753692627
33,23,x,m,-,False,0.45688557624816895
33,23,y,-,-,True,0.5797603130340576
33,23,b,-,-,True,0.46044111251831055
33,23,x,m,-,False,0.4648749828338623
33,23,q,-,-,True,0.5525009632110596
33,23,b,m,-,False,0.5220062732696533
33,23,s,-,-,True,0.482177734375
33,23,z,-,-,True,0.5746452808380127
33,23,h,-,-,True,0.4764416217803955
33,23,y,-,-,True,0.5113067626953125
33,23,x,-,-,True,0.5849752426147461
33,23,s,-,-,True,0.569481611251831
33,23,y,m,-,False,0.9733095169067383
33,23,x,m,-,False,0.4641742706298828
33,23,s,m,-,False,0.5591471195220947
33,23,k,-,-,True,0.4949362277984619
34,23,x,-,-,True,0.5527734756469727
34,23,y,-,-,True,0.4590342044830322
34,23,v,-,-,True,0.45845603942871094
34,23,x,m,-,False,0.5683481693267822
34,23,y,m,-,False,0.9716222286224365
34,23,v,m,m,True,0.7318339347839355
34,23,x,m,-,False,0.47207021713256836
34,23,l,-,-,True,1.0095691680908203
34,23,z,-,-,True,0.7261550426483154
34,23,c,-,-,True,0.5573465824127197
34,23,z,-,-,True,0.4804954528808594
34,23,z,m,m,True,0.4754500389099121
34,23,c,m,-,False,0.5284862518310547
34,23,r,-,-,True,0.5332372188568115
34,23,b,-,-,True,0.4952967166900635
34,23,s,-,-,True,0.9736170768737793
34,23,s,-,m,False,0.4995102882385254
34,23,x,-,-,True,0.4634556770324707
34,23,v,-,-,True,0.6041958332061768
34,23,b,-,-,True,0.5451791286468506
34,23,q,-,-,True,0.5559966564178467
34,23,v,m,-,False,0.42725634574890137
34,23,b,m,-,False,0.5065622329711914
34,23,b,-,m,False,0.5337023735046387
35,23,q,-,-,True,0.9169631004333496
35,23,n,-,-,True,0.5341753959655762
35,23,p,-,-,True,1.8321788311004639
35,23,q,m,-,False,0.4640207290649414
35,23,n,m,m,True,0.9560701847076416
35,23,h,-,-,True,0.5045890808105469
35,23,c,-,-,True,0.44066286087036133
35,23,z,-,-,True,0.572303295135498
35,23,y,-,-,True,2.6255362033843994
35,23,c,m,-,False,0.4708445072174072
35,23,f,-,-,True,0.47847676277160645
35,23,r,-,-,True,0.948432445526123
35,23,q,-,-,True,0.538102388381958
35,23,f,m,-,False,0.565629243850708
35,23,g,-,-,True,0.7098686695098877
35,23,q,m,-,False,0.7903518676757812
35,23,f,m,-,False,0.5958096981048584
35,23,g,m,-,False,0.5853710174560547
35,23,d,-,-,True,0.48374080657958984
35,23,f,m,-,False,0.4694356918334961
35,23,s,-,-,True,0.7213313579559326
35,23,h,-,-,True,0.5041179656982422
35,23,p,-,-,True,0.5517020225524902
35,23,y,-,-,True,0.5566840171813965
36,23,b,-,-,True,1.0012352466583252
36,23,s,-,-,True,0.6474337577819824
36,23,y,-,-,True,0.5060944557189941
36,23,w,-,-,True,0.5907859802246094
36,23,d,-,-,True,0.5328946113586426
36,23,d,-,-,True,0.5058591365814209
36,23,d,-,m,False,0.6379668712615967
36,23,l,-,-,True,0.5280954837799072
36,23,d,m,-,False,0.5355174541473389
36,23,d,m,m,True,0.5290238857269287
36,23,l,m,-,False,0.509343147277832
36,23,d,m,-,False,0.8126370906829834
36,23,f,-,-,True,0.5415630340576172
36,23,l,m,-,False,0.6069903373718262
36,23,d,m,-,False,0.7519614696502686
36,23,k,-,-,True,0.8482301235198975
36,23,n,-,-,True,0.4908134937286377
36,23,y,-,-,True,0.5359237194061279
36,23,d,-,-,True,0.5381817817687988
36,23,b,-,-,True,0.6150856018066406
36,23,f,-,-,True,0.6395478248596191
36,23,d,m,-,False,0.5397717952728271
36,23,c,-,-,True,0.9776127338409424
36,23,f,m,-,False,0.5080771446228027
37,23,f,-,-,True,1.808797836303711
37,23,q,-,-,True,1.1283609867095947
37,23,b,-,-,True,0.4649932384490967
37,23,z,-,-,True,0.534311056137085
37,23,q,m,-,False,0.574030876159668
37,23,b,m,-,False,0.5790987014770508
37,23,j,-,-,True,0.8695652484893799
37,23,l,-,-,True,0.4329240322113037
37,23,b,m,m,True,0.5654349327087402
37,23,f,-,-,True,0.4561922550201416
37,23,l,m,-,False,1.0100677013397217
37,23,b,m,-,False,0.443906307220459
37,23,x,-,-,True,0.5116918087005615
37,23,t,-,-,True,0.7144393920898438
37,23,z,-,-,True,0.5994298458099365
37,23,h,-,-,True,0.48029041290283203
37,23,t,m,-,False,0.4781041145324707
37,23,z,m,-,False,0.45528745651245117
37,23,r,-,-,True,0.514319896697998
37,23,v,-,-,True,0.9897654056549072
37,23,v,-,-,True,1.4342355728149414
37,23,d,-,-,True,0.6429116725921631
37,23,g,-,-,True,0.5899755954742432
37,23,v,m,-,False,0.5553150177001953
38,23,g,-,-,True,1.3129689693450928
38,23,j,-,-,True,0.7576301097869873
38,23,p,-,-,True,0.4765970706939697
38,23,g,m,-,False,0.6806414127349854
38,23,z,-,-,True,0.4412810802459717
38,23,p,m,-,False,0.7008416652679443
38,23,g,m,-,False,0.8830263614654541
38,23,f,-,-,True,0.5766496658325195
38,23,p,m,m,True,1.4322075843811035
38,23,b,-,-,True,0.6121981143951416
38,23,f,m,-,False,0.6194899082183838
38,23,z,-,-,True,0.5389349460601807
38,23,s,-,-,True,0.5554788112640381
38,23,f,m,-,False,0.8899440765380859
38,23,p,-,-,True,0.8482153415679932
38,23,n,-,-,True,0.5706517696380615
38,23,q,-,-,True,0.5563216209411621
38,23,v,-,-,True,0.606712818145752
38,23,k,-,-,True,0.48888397216796875
38,23,q,m,-,False,0.47617292404174805
38,23,v,m,-,False,0.43516039848327637
38,23,n,-,-,True,0.5464591979980469
38,23,y,-,-,True,0.5098986625671387
38,23,t,-,-,True,0.4861023426055908
39,23,r,-,-,True,0.6042520999908447
39,23,y,-,-,True,0.5447332859039307
39,23,w,-,-,True,0.40453362464904785
39,23,b,-,-,True,0.4357337951660156
39,23,k,-,-,True,1.3815059661865234
39,23,r,-,-,True,0.4597048759460449
39,23,w,-,-,True,0.951176643371582
39,23,k,m,-,False,0.458789587020874
39,23,r,m,-,False,0.42009711265563965
39,23,v,-,-,True,0.472179651260376
39,23,k,m,-,False,0.5575013160705566
39,23,s,-,-,True,0.43026208877563477
39,23,p,-,-,True,0.9656877517700195
39,23,s,-,-,True,0.46672892570495605
39,23,s,m,m,True,0.6104395389556885
39,23,p,m,-,False,0.4595530033111572
39,23,b,-,-,True,0.46029019355773926
39,23,s,m,-,False,0.5053772926330566
39,23,c,-,-,True,0.579509973526001
39,23,b,m,-,False,1.0220253467559814
39,23,s,m,-,False,0.7442731857299805
39,23,t,-,-,True,0.6019408702850342
39,23,q,-,-,True,0.530097484588623
39,23,l,-,-,True,0.5897254943847656
40,23,f,-,-,True,0.9715800285339355
40,23,k,-,-,True,0.5687224864959717
40,23,h,-,-,True,0.40055251121520996
40,23,k,-,-,True,0.580033540725708
40,23,k,m,m,True,0.40373802185058594
40,23,h,m,-,False,0.512645959854126
40,23,k,m,-,False,0.4765431880950928
40,23,g,-,-,True,0.9087450504302979
40,23,n,-,-,True,0.5120079517364502
40,23,n,-,-,True,0.5633108615875244
40,23,g,m,-,False,0.4792904853820801
40,23,y,-,-,True,0.7441039085388184
40,23,f,-,-,True,0.5546605587005615
40,23,d,-,-,True,0.5792782306671143
40,23,d,-,m,False,0.6938915252685547
40,23,f,m,-,False,0.5672416687011719
40,23,d,m,-,False,0.5912492275238037
40,23,b,-,-,True,0.7532978057861328
40,23,f,m,-,False,0.5705325603485107
40,23,h,-,-,True,0.49239444732666016
40,23,l,-,-,True,0.7489719390869141
40,23,h,-,-,True,0.7183754444122314
40,23,p,-,-,True,1.2388458251953125
40,23,l,m,-,False,0.5058145523071289
41,23,h,-,-,True,1.131709098815918
41,23,w,-,-,True,0.7456166744232178
41,23,c,-,-,True,0.48835253715515137
41,23,c,-,-,True,0.5728914737701416
41,23,w,m,-,False,0.5718464851379395
41,23,y,-,-,True,0.6937308311462402
41,23,l,-,-,True,1.7975928783416748
41,23,w,m,-,False,0.6220483779907227
41,23,y,m,-,False,0.5182216167449951
41,23,l,m,-,False,0.7450454235076904
41,23,f,-,-,True,0.5066590309143066
41,23,f,-,m,False,0.948714017868042
41,23,l,m,-,False,0.9042541980743408
41,23,v,-,-,True,0.508145809173584
41,23,f,m,-,False,0.7209384441375732
41,23,d,-,-,True,0.5730605125427246
41,23,v,m,-,False,0.7281539440155029
41,23,j,-,-,True,0.5034997463226318
41,23,d,m,-,False,0.5161995887756348
41,23,w,-,-,True,0.538447380065918
41,23,b,-,-,True,0.4889256954193115
41,23,f,-,-,True,0.94482421875
41,23,f,-,m,False,0.49335408210754395
41,23,l,-,-,True,0.6165294647216797
42,23,x,-,-,True,1.185516357421875
42,23,s,-,-,True,1.517286777496338
42,23,h,-,-,True,0.4806942939758301
42,23,b,-,-,True,0.41506290435791016
42,23,s,m,-,False,0.4982948303222656
42,23,l,-,-,True,0.8820104598999023
42,23,l,-,-,True,0.6687586307525635
42,23,h,-,-,True,0.484661340713501
42,23,y,-,-,True,0.5810728073120117
42,23,g,-,-,True,0.587867259979248
42,23,h,m,m,True,0.6619696617126465
42,23,h,-,-,True,0.5155463218688965
42,23,g,m,-,False,0.5971887111663818
42,23,h,m,-,False,0.5830698013305664
42,23,h,m,m,True,0.7529833316802979
42,23,g,m,-,False,0.5168278217315674
42,23,h,m,-,False,0.7236316204071045
42,23,h,m,m,True,0.49181175231933594
42,23,t,-,-,True,0.9852199554443359
42,23,q,-,-,True,0.589268684387207
42,23,k,-,-,True,0.5927114486694336
42,23,k,-,-,True,0.47552943229675293
42,23,z,-,-,True,0.5559694766998291
42,23,y,-,-,True,0.48405909538269043
43,23,d,-,-,True,1.1683073043823242
43,23,r,-,-,True,0.5507166385650635
43,23,k,-,-,True,0.5945038795471191
43,23,d,m,-,False,0.5966236591339111
43,23,r,m,-,False,1.1569619178771973
43,23,l,-,-,True,0.6264545917510986
43,23,d,m,-,False,0.7656397819519043
43,23,s,-,-,True,0.5394182205200195
43,23,s,-,m,False,0.6246845722198486
43,23,c,-,-,True,0.6099550724029541
43,23,p,-,-,True,1.0659804344177246
43,23,h,-,-,True,0.47966694831848145
43,23,c,m,-,False,0.627302885055542
43,23,p,m,-,False,1.5496101379394531
43,23,y,-,-,True,0.6865248680114746
43,23,n,-,-,True,0.6472756862640381
43,23,t,-,-,True,0.5607500076293945
43,23,y,m,-,False,1.96895170211792
43,23,l,-,-,True,0.5363664627075195
43,23,t,m,-,False,0.7158424854278564
43,23,d,-,-,True,0.5601210594177246
43,23,p,-,-,True,0.629497766494751
43,23,t,m,-,False,0.6399736404418945
43,23,c,-,-,True,0.5841279029846191
44,23,w,-,-,True,0.640084981918335
44,23,j,-,-,True,0.5097897052764893
44,23,p,-,-,True,1.4515283107757568
44,23,n,-,-,True,0.5967307090759277
44,23,j,m,-,False,0.5471947193145752
44,23,v,-,-,True,0.5009384155273438
44,23,t,-,-,True,0.5576553344726562
44,23,q,-,-,True,0.6181061267852783
44,23,v,m,-,False,0.5387370586395264
44,23,l,-,-,True,0.5027070045471191
44,23,q,m,-,False,0.5384852886199951
44,23,v,m,-,False,1.0772597789764404
44,23,z,-,-,True,0.5184366703033447
44,23,p,-,-,True,0.6998751163482666
44,23,v,m,-,False,0.9716641902923584
44,23,z,m,-,False,0.6473178863525391
44,23,p,m,-,False,0.6158723831176758
44,23,v,m,-,False,1.5987787246704102
44,23,q,-,-,True,0.6129777431488037
44,23,q,-,m,False,0.5376796722412109
44,23,g,-,-,True,0.7552008628845215
44,23,d,-,-,True,0.7378244400024414
44,23,n,-,-,True,0.654578447341919
44,23,l,-,-,True,0.6254169940948486
45,23,h,-,-,True,0.6886818408966064
45,23,q,-,-,True,0.522449254989624
45,23,b,-,-,True,0.6664910316467285
45,23,r,-,-,True,0.7681896686553955
45,23,q,m,-,False,0.6196291446685791
45,23,k,-,-,True,1.019723892211914
45,23,j,-,-,True,0.5181655883789062
45,23,q,m,-,False,0.7917091846466064
45,23,l,-,-,True,0.5277149677276611
45,23,n,-,-,True,1.0458440780639648
45,23,q,m,-,False,1.0601394176483154
45,23,s,-,-,True,0.568305253982544
45,23,n,m,-,False,0.6252195835113525
45,23,q,m,-,False,0.5134434700012207
45,23,j,-,-,True,0.6453447341918945
45,23,j,-,m,False,0.5273551940917969
45,23,q,m,-,False,0.921349048614502
45,23,z,-,-,True,0.6294763088226318
45,23,c,-,-,True,0.6866133213043213
45,23,v,-,-,True,0.659773588180542
45,23,z,m,-,False,0.5983603000640869
45,23,c,m,-,False,0.6143841743469238
45,23,g,-,-,True,0.5281085968017578
45,23,v,-,-,True,0.5896949768066406
46,23,j,-,-,True,0.6192376613616943
46,23,t,-,-,True,0.5091359615325928
46,23,d,-,-,True,0.9873700141906738
46,23,j,m,-,False,1.003110408782959
46,23,t,m,-,False,0.5352752208709717
46,23,j,-,-,True,0.7821331024169922
46,23,j,m,m,True,0.5336627960205078
46,23,r,-,-,True,0.5513057708740234
46,23,w,-,-,True,1.0130813121795654
46,23,n,-,-,True,0.5456116199493408
46,23,r,m,-,False,0.6246623992919922
46,23,f,-,-,True,0.4663403034210205
46,23,t,-,-,True,1.0779469013214111
46,23,g,-,-,True,0.5376052856445312
46,23,f,m,-,False,0.4847381114959717
46,23,l,-,-,True,0.639817476272583
46,23,g,m,-,False,0.567882776260376
46,23,f,m,-,False,0.839440107345581
46,23,x,-,-,True,0.5732519626617432
46,23,g,m,-,False,0.6623573303222656
46,23,r,-,-,True,0.5919632911682129
46,23,f,-,-,True,0.6354389190673828
46,23,c,-,-,True,0.6244933605194092
46,23,g,-,-,True,0.5728442668914795
47,23,j,-,-,True,1.0150437355041504
47,23,p,-,-,True,0.5095562934875488
47,23,t,-,-,True,0.4983401298522949
47,23,n,-,-,True,0.5172436237335205
47,23,t,-,m,False,0.5884711742401123
47,23,t,m,-,False,0.5381200313568115
47,23,r,-,-,True,0.6440107822418213
47,23,v,-,-,True,0.6070363521575928
47,23,b,-,-,True,0.4813344478607178
47,23,q,-,-,True,0.6358764171600342
47,23,v,m,-,False,0.4792509078979492
47,23,b,m,-,False,0.9868931770324707
47,23,q,m,-,False,0.7079458236694336
47,23,w,-,-,True,0.5086565017700195
47,23,d,-,-,True,0.7571802139282227
47,23,b,-,-,True,0.6003797054290771
47,23,w,m,-,False,0.4989907741546631
47,23,d,m,-,False,0.526064395904541
47,23,y,-,-,True,0.527489423751831
47,23,w,m,-,False,0.5994167327880859
47,23,s,-,-,True,0.5072062015533447
47,23,r,-,-,True,0.6119222640991211
47,23,w,m,-,False,1.0896289348602295
47,23,f,-,-,True,0.536207914352417
48,23,k,-,-,True,0.9483368396759033
48,23,g,-,-,True,1.0023043155670166
48,23,t,-,-,True,0.5742671489715576
48,23,k,m,-,False,0.4884300231933594
48,23,c,-,-,True,0.7483375072479248
48,23,d,-,-,True,0.5148515701293945
48,23,y,-,-,True,0.4552133083343506
48,23,b,-,-,True,0.5765948295593262
48,23,d,m,m,True,0.5883240699768066
48,23,d,-,-,True,0.5916857719421387
48,23,b,m,-,False,1.5035288333892822
48,23,h,-,-,True,0.6387336254119873
48,23,g,-,-,True,0.6042499542236328
48,23,t,-,-,True,1.0875794887542725
48,23,y,-,-,True,0.6612675189971924
48,23,g,m,-,False,0.6646158695220947
48,23,t,m,-,False,1.0074527263641357
48,23,y,m,-,False,0.6896243095397949
48,23,c,-,-,True,0.5283193588256836
48,23,d,-,-,True,0.6111671924591064
48,23,b,-,-,True,1.0207059383392334
48,23,z,-,-,True,0.6789414882659912
48,23,d,m,-,False,0.6355085372924805
48,23,b,m,-,False,0.5236999988555908
49,23,w,-,-,True,0.9267539978027344
49,23,q,-,-,True,0.9638335704803467
49,23,l,-,-,True,0.585655689239502
49,23,w,m,-,False,0.7321314811706543
49,23,q,m,-,False,0.4777700901031494
49,23,l,m,-,False,1.1189992427825928
49,23,w,m,-,False,0.4942009449005127
49,23,t,-,-,True,0.6031026840209961
49,23,z,-,-,True,0.6322293281555176
49,23,p,-,-,True,0.9946515560150146
49,23,c,-,-,True,0.5831990242004395
49,23,l,-,-,True,0.6017210483551025
49,23,q,-,-,True,0.9382467269897461
49,23,c,m,-,False,0.47893571853637695
49,23,l,m,-,False,0.5844595432281494
49,23,z,-,-,True,0.5076699256896973
49,23,s,-,-,True,0.7275168895721436
49,23,v,-,-,True,0.45063209533691406
49,23,z,m,-,False,0.4877936840057373
49,23,t,-,-,True,0.729572057723999
49,23,v,m,-,False,0.4985630512237549
49,23,x,-,-,True,0.5069403648376465
49,23,w,-,-,True,0.5986025333404541
49,23,l,-,-,True,0.5899536609649658
