block,trial_index,stimulus,target,response,correct,rt
0,23,t,-,-,True,1.166008472442627
0,23,r,-,-,True,0.486236572265625
0,23,j,-,-,True,1.542480707168579
0,23,g,-,-,True,1.016340732574463
0,23,r,m,-,False,0.4852910041809082
0,23,k,-,-,True,0.9734687805175781
0,23,y,-,-,True,0.5370714664459229
0,23,q,-,-,True,0.5045979022979736
0,23,k,m,-,False,0.45775794982910156
0,23,y,m,-,False,0.5007898807525635
0,23,y,-,m,False,0.7549858093261719
0,23,p,-,-,True,0.4650418758392334
0,23,r,-,-,True,0.521730899810791
0,23,y,m,-,False,0.8926572799682617
0,23,p,m,-,False,0.5278942584991455
0,23,w,-,-,True,0.9931178092956543
0,23,v,-,-,True,1.0408430099487305
0,23,x,-,-,True,0.5162312984466553
0,23,w,m,-,False,1.0055642127990723
0,23,y,-,-,True,0.6181278228759766
0,23,l,-,-,True,0.6028656959533691
0,23,k,-,-,True,0.5907976627349854
0,23,y,m,-,False,0.5415511131286621
0,23,l,m,-,False,0.6357748508453369
1,23,w,-,-,True,1.055969476699829
1,23,p,-,-,True,0.6103646755218506
1,23,z,-,-,True,0.6894042491912842
1,23,v,-,-,True,0.9139983654022217
1,23,l,-,-,True,0.9427375793457031
1,23,l,-,m,False,0.4945507049560547
1,23,v,m,-,False,0.43567991256713867
1,23,f,-,-,True,0.5441811084747314
1,23,l,m,-,False,1.0484778881072998
1,23,f,-,-,True,0.5759179592132568
1,23,f,m,-,False,0.5394330024719238
1,23,x,-,-,True,0.6102261543273926
1,23,f,m,-,False,0.5047659873962402
1,23,c,-,-,True,0.5027320384979248
1,23,s,-,-,True,0.62062668800354
1,23,f,m,-,False,0.6006433963775635
1,23,x,-,-,True,0.6185207366943359
1,23,v,-,m,False,0.743964672088623
1,23,f,m,-,False,0.4820401668548584
1,23,d,-,-,True,1.0502419471740723
1,23,n,-,-,True,0.6248691082000732
1,23,f,m,-,False,0.5134687423706055
1,23,x,-,m,False,0.5367894172668457
1,23,n,m,-,False,0.5347297191619873
2,23,r,-,-,True,0.9180054664611816
2,23,y,-,-,True,0.500852108001709
2,23,n,-,-,True,0.4907417297363281
2,23,r,m,-,False,0.9710342884063721
2,23,w,-,-,True,0.5831928253173828
2,23,n,m,-,False,0.588956356048584
2,23,r,m,m,True,0.5045716762542725
2,23,w,m,-,False,0.489673376083374
2,23,b,-,-,True,0.5244266986846924
2,23,p,-,-,True,1.0037813186645508
2,23,z,-,-,True,0.6497666835784912
2,23,t,-,-,True,0.5148460865020752
2,23,p,m,-,False,0.7013199329376221
2,23,h,-,-,True,0.5154790878295898
2,23,z,-,m,False,0.6077413558959961
2,23,g,-,-,True,0.551102876663208
2,23,p,-,-,True,0.5064218044281006
2,23,z,m,-,False,0.49278807640075684
2,23,w,-,-,True,0.6716749668121338
2,23,p,m,m,True,0.5692591667175293
2,23,j,-,-,True,0.5163040161132812
2,23,k,-,-,True,0.5184142589569092
2,23,f,-,-,True,0.5176351070404053
2,23,j,m,-,False,0.5290005207061768
3,23,p,-,-,True,1.2015299797058105
3,23,j,-,-,True,0.5279219150543213
3,23,t,-,-,True,0.6318240165710449
3,23,p,m,-,False,0.6219325065612793
3,23,z,-,-,True,0.5061817169189453
3,23,t,m,m,True,0.984642744064331
3,23,p,m,-,False,0.5283927917480469
3,23,f,-,-,True,0.5343647003173828
3,23,h,-,-,True,0.6283271312713623
3,23,x,-,-,True,0.8526833057403564
3,23,f,m,-,False,0.577913761138916
3,23,p,-,-,True,0.6043117046356201
3,23,z,-,-,True,0.5348587036132812
3,23,h,-,-,True,0.545356035232544
3,23,w,-,-,True,0.6550261974334717
3,23,z,m,-,False,0.5503818988800049
3,23,x,-,-,True,0.5109131336212158
3,23,y,-,-,True,1.028398036956787
3,23,v,-,-,True,1.0414435863494873
3,23,x,m,m,True,0.5411159992218018
3,23,y,m,-,False,0.5541794300079346
3,23,c,-,-,True,0.5288100242614746
3,23,x,m,-,False,1.0471382141113281
3,23,c,-,m,False,0.7401747703552246
4,23,d,-,-,True,1.5180232524871826
4,23,x,-,-,True,0.38099026679992676
4,23,f,-,-,True,0.5591824054718018
4,23,d,m,-,False,0.4651060104370117
4,23,r,-,-,True,0.45389628410339355
4,23,q,-,-,True,0.4701387882232666
4,23,p,-,-,True,0.44092321395874023
4,23,j,-,-,True,1.092918872833252
4,23,z,-,-,True,0.9396309852600098
4,23,p,m,-,False,0.6140041351318359
4,23,h,-,-,True,0.4673728942871094
4,23,z,m,-,False,0.963942289352417
4,23,n,-,-,True,0.5713505744934082
4,23,h,m,m,True,0.4957735538482666
4,23,z,m,-,False,0.5388104915618896
4,23,g,-,-,True,0.6001436710357666
4,23,h,m,-,False,0.49779295921325684
4,23,z,m,-,False,0.47934842109680176
4,23,l,-,-,True,0.9589424133300781
4,23,h,m,-,False,0.5249791145324707
4,23,c,-,-,True,1.0009794235229492
4,23,s,-,-,True,0.5677981376647949
4,23,v,-,-,True,0.4893629550933838
4,23,f,-,m,False,0.49440717697143555
5,23,n,-,-,True,0.9715094566345215
5,23,n,-,-,True,0.46425461769104004
5,23,j,-,-,True,0.4026987552642822
5,23,g,-,-,True,1.4275376796722412
5,23,f,-,-,True,0.47980546951293945
5,23,w,-,-,True,0.4036448001861572
5,23,g,m,-,False,0.4752030372619629
5,23,f,m,-,False,1.7488949298858643
5,23,w,m,m,True,0.4586770534515381
5,23,g,m,-,False,1.0194201469421387
5,23,z,-,-,True,0.564394474029541
5,23,w,m,-,False,0.4822263717651367
5,23,g,m,-,False,0.5596737861633301
5,23,v,-,-,True,0.4750862121582031
5,23,x,-,-,True,0.9352693557739258
5,23,f,-,-,True,0.9187009334564209
5,23,q,-,-,True,0.4760727882385254
5,23,n,-,-,True,0.5208804607391357
5,23,f,m,-,False,0.4412870407104492
5,23,v,-,-,True,0.534151554107666
5,23,n,m,-,False,0.9975695610046387
5,23,w,-,-,True,1.4794714450836182
5,23,y,-,-,True,0.6590654850006104
5,23,f,-,-,True,0.4820740222930908
6,23,f,-,-,True,1.0059583187103271
6,23,y,-,-,True,0.9416289329528809
6,23,n,-,-,True,0.5053861141204834
6,23,f,m,-,False,0.5012035369873047
6,23,y,m,m,True,0.5730724334716797
6,23,r,-,-,True,0.5044887065887451
6,23,f,m,-,False,1.7042818069458008
6,23,y,m,-,False,0.7271173000335693
6,23,r,m,-,False,0.6609532833099365
6,23,g,-,-,True,0.48777222633361816
6,23,j,-,-,True,0.463306188583374
6,23,b,-,-,True,1.0575203895568848
6,23,g,m,m,True,0.4864082336425781
6,23,h,-,-,True,0.5236523151397705
6,23,f,-,-,True,0.48492932319641113
6,23,g,m,-,False,0.4943370819091797
6,23,h,m,-,False,0.4936561584472656
6,23,t,-,-,True,0.5014300346374512
6,23,x,-,-,True,0.5186190605163574
6,23,q,-,-,True,0.7712337970733643
6,23,n,-,-,True,0.6122105121612549
6,23,t,-,-,True,0.5004596710205078
6,23,j,-,-,True,0.5725533962249756
6,23,d,-,-,True,0.6159758567810059
7,23,z,-,-,True,1.1780471801757812
7,23,n,-,-,True,0.45758891105651855
7,23,y,-,-,True,0.5611386299133301
7,23,p,-,-,True,1.4063451290130615
7,23,n,m,m,True,0.5468258857727051
7,23,y,m,-,False,0.8567588329315186
7,23,l,-,-,True,0.5669147968292236
7,23,j,-,-,True,0.4087505340576172
7,23,y,m,m,True,0.5003204345703125
7,23,c,-,-,True,0.4696941375732422
7,23,b,-,-,True,0.47289419174194336
7,23,y,m,-,False,0.5424346923828125
7,23,d,-,-,True,0.49429965019226074
7,23,b,m,-,False,0.47926807403564453
7,23,v,-,-,True,0.4801766872406006
7,23,d,m,-,False,1.4393608570098877
7,23,p,-,-,True,0.4667961597442627
7,23,c,-,-,True,0.5861766338348389
7,23,d,m,-,False,1.0426344871520996
7,23,v,-,-,True,0.4843292236328125
7,23,r,-,-,True,0.4818410873413086
7,23,c,-,m,False,0.6405532360076904
7,23,v,m,-,False,1.036144495010376
7,23,w,-,-,True,0.6982443332672119
8,23,h,-,-,True,0.42580723762512207
8,23,j,-,-,True,0.49196338653564453
8,23,f,-,-,True,0.6763708591461182
8,23,q,-,-,True,0.6308183670043945
8,23,p,-,-,True,0.5664722919464111
8,23,t,-,-,True,0.9616308212280273
8,23,q,m,-,False,0.6682264804840088
8,23,n,-,-,True,0.5754222869873047
8,23,w,-,-,True,0.4257657527923584
8,23,y,-,-,True,0.4734320640563965
8,23,n,m,m,True,0.49420595169067383
8,23,b,-,-,True,1.038651704788208
8,23,d,-,-,True,0.47107863426208496
8,23,t,-,m,False,0.7057602405548096
8,23,b,m,-,False,0.4750533103942871
8,23,z,-,-,True,0.5197021961212158
8,23,h,-,m,False,0.4197227954864502
8,23,b,m,-,False,0.5723364353179932
8,23,n,-,-,True,0.6027634143829346
8,23,h,m,-,False,0.5037939548492432
8,23,b,m,m,True,0.5991177558898926
8,23,n,m,-,False,0.4938938617706299
8,23,h,m,-,False,0.5693988800048828
8,23,h,-,-,True,0.4814143180847168
9,23,p,-,-,True,0.978018045425415
9,23,v,-,-,True,0.8835535049438477
9,23,q,-,-,True,0.49341368675231934
9,23,d,-,-,True,0.46642327308654785
9,23,q,-,-,True,0.7462277412414551
9,23,q,m,m,True,0.49991273880004883
9,23,d,m,-,False,0.47429990768432617
9,23,q,m,-,False,0.5847759246826172
9,23,p,-,-,True,0.9925816059112549
9,23,g,-,-,True,0.5468928813934326
9,23,q,m,m,True,0.43871355056762695
9,23,j,-,-,True,0.43411731719970703
9,23,l,-,-,True,0.4745349884033203
9,23,q,m,-,False,0.9888648986816406
9,23,q,-,m,False,0.48435378074645996
9,23,t,-,-,True,0.5959854125976562
9,23,q,m,-,False,0.590796709060669
9,23,l,-,-,True,0.7455999851226807
9,23,t,m,-,False,0.5010366439819336
9,23,v,-,-,True,0.54524827003479
9,23,x,-,-,True,0.7875547409057617
9,23,t,m,-,False,0.440521240234375
9,23,l,-,-,True,0.5990638732910156
9,23,l,-,m,False,0.5132312774658203
10,23,l,-,-,True,0.9396703243255615
10,23,q,-,-,True,0.617915153503418
10,23,b,-,-,True,0.9155011177062988
10,23,q,-,-,True,0.698505163192749
10,23,q,m,m,True,0.5541422367095947
10,23,b,m,-,False,1.5012423992156982
10,23,q,m,-,False,0.6145331859588623
10,23,n,-,-,True,0.5958325862884521
10,23,l,-,-,True,0.4982733726501465
10,23,k,-,-,True,0.4853653907775879
10,23,n,m,-,False,0.443845272064209
10,23,g,-,-,True,1.243912696838379
10,23,d,-,-,True,0.5638725757598877
10,23,n,m,-,False,0.9819285869598389
10,23,g,m,-,False,0.44963765144348145
10,23,z,-,-,True,0.5052428245544434
10,23,n,m,-,False,0.4656541347503662
10,23,d,-,-,True,0.9617917537689209
10,23,z,m,-,False,0.5731582641601562
10,23,h,-,-,True,0.977637529373169
10,23,g,-,-,True,0.4761052131652832
10,23,d,-,-,True,0.4906013011932373
10,23,x,-,-,True,0.43143463134765625
10,23,p,-,-,True,0.6305761337280273
11,23,r,-,-,True,0.4607737064361572
11,23,k,-,-,True,0.9583499431610107
11,23,x,-,-,True,0.4521324634552002
11,23,y,-,-,True,0.48845338821411133
11,23,p,-,-,True,0.7467293739318848
11,23,f,-,-,True,0.45860934257507324
11,23,y,m,-,False,0.9661095142364502
11,23,y,-,m,False,0.48346614837646484
11,23,t,-,-,True,0.5664265155792236
11,23,f,-,-,True,0.47409486770629883
11,23,v,-,-,True,1.0485985279083252
11,23,y,-,m,False,0.47185707092285156
11,23,z,-,-,True,0.45318102836608887
11,23,t,-,-,True,0.4576082229614258
11,23,y,m,-,False,0.5857503414154053
11,23,z,m,-,False,0.45807933807373047
11,23,b,-,-,True,0.5689737796783447
11,23,w,-,-,True,0.49700355529785156
11,23,r,-,-,True,0.5674376487731934
11,23,b,m,-,False,0.5868585109710693
11,23,w,m,-,False,0.9825448989868164
11,23,r,m,-,False,0.4784255027770996
11,23,b,m,-,False,0.4904029369354248
11,23,w,m,m,True,0.563262939453125
12,23,n,-,-,True,0.45797038078308105
12,23,f,-,-,True,0.45264244079589844
12,23,x,-,-,True,0.5664141178131104
12,23,v,-,-,True,0.4841959476470947
12,23,d,-,-,True,0.47031331062316895
12,23,x,m,-,False,0.46814870834350586
12,23,b,-,-,True,0.4254631996154785
12,23,h,-,-,True,0.46754908561706543
12,23,x,m,-,False,0.561497688293457
12,23,x,-,m,False,0.48936939239501953
12,23,h,m,-,False,0.5707314014434814
12,23,r,-,-,True,0.6929230690002441
12,23,l,-,-,True,0.47517967224121094
12,23,h,m,-,False,0.5849065780639648
12,23,v,-,m,False,34.203125
12,23,y,-,-,True,1.2661449909210205
12,23,t,-,-,True,0.6010396480560303
12,23,n,-,-,True,0.63726806640625
12,23,y,m,-,False,0.5801370143890381
12,23,n,-,m,False,0.8590548038482666
12,23,n,m,m,True,0.4824404716491699
12,23,y,m,-,False,0.875572681427002
12,23,n,m,m,True,0.6140620708465576
12,23,k,-,-,True,1.2597668170928955
13,23,p,-,-,True,0.43625855445861816
13,23,p,-,-,True,0.5575377941131592
13,23,z,-,-,True,0.43103718757629395
13,23,w,-,-,True,0.9248478412628174
13,23,l,-,-,True,0.5194203853607178
13,23,z,m,m,True,0.9414145946502686
13,23,t,-,-,True,0.5151667594909668
13,23,l,m,-,False,0.9002108573913574
13,23,z,m,-,False,0.6023416519165039
13,23,p,-,-,True,0.6995856761932373
13,23,l,m,-,False,0.4819459915161133
13,23,z,m,-,False,0.460341215133667
13,23,p,m,m,True,1.0222582817077637
13,23,h,-,-,True,0.4678685665130615
13,23,x,-,-,True,0.4723377227783203
13,23,x,-,-,True,0.9899895191192627
13,23,h,m,-,False,0.4707512855529785
13,23,n,-,-,True,0.4814157485961914
13,23,n,-,-,True,0.48735761642456055
13,23,b,-,-,True,0.5403077602386475
13,23,v,-,-,True,0.9327411651611328
13,23,s,-,m,False,0.5985212326049805
13,23,f,-,-,True,0.4820740222930908
13,23,v,m,-,False,0.5895063877105713
14,23,f,-,-,True,0.5557777881622314
14,23,c,-,-,True,0.4609208106994629
14,23,t,-,-,True,0.5461680889129639
14,23,n,-,-,True,0.9829962253570557
14,23,c,m,-,False,0.434765100479126
14,23,t,m,-,False,0.46110010147094727
14,23,n,m,m,True,0.5523514747619629
14,23,k,-,-,True,0.4553537368774414
14,23,g,-,-,True,0.9708678722381592
14,23,d,-,-,True,0.5097000598907471
14,23,k,m,-,False,0.5697059631347656
14,23,k,-,m,False,0.45429015159606934
14,23,d,m,-,False,1.4296276569366455
14,23,f,-,-,True,0.9422211647033691
14,23,x,-,-,True,0.4668004512786865
14,23,y,-,-,True,1.4552249908447266
14,23,s,-,-,True,0.4236762523651123
14,23,r,-,-,True,0.616417407989502
14,23,y,m,-,False,0.8870415687561035
14,23,s,m,-,False,0.9177184104919434
14,23,y,-,-,True,0.4412381649017334
14,23,f,-,-,True,0.6090764999389648
14,23,s,m,m,True,0.5048892498016357
14,23,k,-,-,True,1.0268867015838623
15,23,z,-,-,True,1.0234661102294922
15,23,s,-,-,True,0.4628636837005615
15,23,n,-,-,True,0.5523290634155273
15,23,f,-,-,True,0.45792198181152344
15,23,s,m,-,False,1.4960119724273682
15,23,l,-,-,True,0.968250036239624
15,23,b,-,-,True,0.6280090808868408
15,23,k,-,-,True,0.5971925258636475
15,23,x,-,m,False,0.46817922592163086
15,23,b,m,-,False,1.4115781784057617
15,23,k,m,-,False,0.46721363067626953
15,23,g,-,-,True,0.9003231525421143
15,23,w,-,-,True,0.4687068462371826
15,23,k,m,-,False,0.5056657791137695
15,23,d,-,-,True,1.053149700164795
15,23,w,m,-,False,0.4733145236968994
15,23,q,-,-,True,0.47968387603759766
15,23,d,m,-,False,0.5213496685028076
15,23,l,-,-,True,0.5747699737548828
15,23,t,-,-,True,0.6189227104187012
15,23,d,m,m,True,0.7693126201629639
15,23,g,-,-,True,0.6022830009460449
15,23,t,m,-,False,0.5554192066192627
15,23,y,-,-,True,0.6006577014923096
16,23,c,-,-,True,0.9707450866699219
16,23,p,-,-,True,0.5912537574768066
16,23,z,-,-,True,0.5771434307098389
16,23,c,m,-,False,0.6874747276306152
16,23,p,m,-,False,0.4650611877441406
16,23,z,m,-,False,0.47779178619384766
16,23,d,-,-,True,0.5996479988098145
16,23,p,m,m,True,1.0637977123260498
16,23,f,-,-,True,0.5006451606750488
16,23,s,-,-,True,0.7590458393096924
16,23,r,-,-,True,0.5818312168121338
16,23,n,-,-,True,0.4938926696777344
16,23,x,-,-,True,0.5107793807983398
16,23,r,m,-,False,0.6016252040863037
16,23,h,-,-,True,0.6538596153259277
16,23,z,-,-,True,0.7130699157714844
16,23,r,m,m,True,0.547614336013794
16,23,x,-,-,True,0.5077157020568848
16,23,c,-,-,True,0.5456984043121338
16,23,k,-,-,True,0.7726550102233887
16,23,k,-,m,False,0.9728434085845947
16,23,c,m,-,False,0.5139908790588379
16,23,p,-,-,True,0.5978341102600098
16,23,k,m,-,False,0.6241483688354492
17,23,g,-,-,True,1.1681621074676514
17,23,y,-,-,True,0.4605236053466797
17,23,d,-,-,True,0.43796873092651367
17,23,p,-,-,True,1.0027496814727783
17,23,y,m,-,False,0.7403528690338135
17,23,p,-,-,True,0.9990127086639404
17,23,r,-,-,True,0.9317924976348877
17,23,g,-,-,True,0.45708632469177246
17,23,p,m,m,True,0.8766956329345703
17,23,r,m,m,True,1.1019790172576904
17,23,r,-,-,True,0.9647328853607178
17,23,f,-,-,True,0.4654989242553711
17,23,h,-,-,True,1.103729248046875
17,23,r,m,-,False,0.49135541915893555
17,23,q,-,-,True,0.5506572723388672
17,23,h,m,m,True,0.7462334632873535
17,23,c,-,-,True,0.5512773990631104
17,23,n,-,-,True,0.49239683151245117
17,23,h,m,-,False,0.8516452312469482
17,23,k,-,-,True,0.6531713008880615
17,23,p,-,-,True,0.5370192527770996
17,23,h,m,m,True,0.629448413848877
17,23,k,m,-,False,0.48300766944885254
17,23,r,-,-,True,0.7295057773590088
18,23,q,-,-,True,1.016533613204956
18,23,z,-,-,True,0.5518763065338135
18,23,q,-,-,True,0.4680137634277344
18,23,g,-,-,True,0.4673457145690918
18,23,z,m,m,True,0.5159542560577393
18,23,d,-,-,True,0.6194519996643066
18,23,g,m,-,False,0.48784494400024414
18,23,z,m,m,True,0.5771121978759766
18,23,d,m,-,False,0.6967291831970215
18,23,l,-,-,True,0.4699058532714844
18,23,w,-,-,True,0.4824247360229492
18,23,v,-,-,True,0.5766079425811768
18,23,n,-,-,True,0.5758416652679443
18,23,r,-,-,True,0.47822070121765137
18,23,n,-,m,False,0.4606199264526367
18,23,n,m,-,False,0.9519155025482178
18,23,r,m,-,False,0.46768689155578613
18,23,n,m,-,False,0.46915459632873535
18,23,s,-,-,True,0.6537086963653564
18,23,l,-,-,True,0.5974345207214355
18,23,f,-,-,True,0.4957106113433838
18,23,s,m,-,False,0.5723140239715576
18,23,w,-,-,True,0.4726274013519287
18,23,w,-,m,False,0.6238939762115479
19,23,d,-,-,True,1.0025794506072998
19,23,h,-,-,True,0.8729989528656006
19,23,g,-,-,True,0.4922218322753906
19,23,x,-,-,True,0.45557332038879395
19,23,h,m,-,False,0.46010923385620117
19,23,n,-,-,True,0.4588441848754883
19,23,j,-,-,True,0.4900095462799072
19,23,z,-,-,True,0.4719278812408447
19,23,n,m,-,False,0.9618308544158936
19,23,w,-,-,True,0.9077639579772949
19,23,w,-,m,False,0.460590124130249
19,23,g,-,-,True,0.4797854423522949
19,23,w,m,m,True,0.42618584632873535
19,23,w,m,m,True,0.4718754291534424
19,23,n,-,-,True,0.5907173156738281
19,23,y,-,-,True,0.49318575859069824
19,23,p,-,-,True,0.4721827507019043
19,23,j,-,-,True,0.5783255100250244
19,23,y,m,-,False,0.47309279441833496
19,23,p,m,-,False,0.451493501663208
19,23,d,-,m,False,0.6076014041900635
19,23,c,-,-,True,0.4963948726654053
19,23,p,m,-,False,0.9532825946807861
19,23,d,m,m,True,0.48671531677246094
20,23,k,-,-,True,0.4931020736694336
20,23,p,-,-,True,0.6127772331237793
20,23,d,-,-,True,0.46991539001464844
20,23,k,m,-,False,0.45957350730895996
20,23,p,m,-,False,0.5802361965179443
20,23,d,m,m,True,0.4761049747467041
20,23,s,-,-,True,0.5447423458099365
20,23,p,m,-,False,1.6662323474884033
20,23,q,-,-,True,0.6048698425292969
20,23,j,-,-,True,0.4648871421813965
20,23,d,-,-,True,0.44690704345703125
20,23,q,m,-,False,0.546593427658081
20,23,p,-,m,False,0.47698473930358887
20,23,d,m,-,False,0.7138545513153076
20,23,n,-,-,True,0.5947461128234863
20,23,h,-,-,True,0.9293601512908936
20,23,n,-,-,True,0.5874001979827881
20,23,j,-,-,True,0.5105068683624268
20,23,h,m,-,False,0.5790975093841553
20,23,p,-,-,True,0.49323511123657227
20,23,f,-,-,True,0.973041296005249
20,23,w,-,-,True,0.48588991165161133
20,23,p,m,-,False,0.47536134719848633
20,23,t,-,-,True,0.4637022018432617
21,23,j,-,-,True,1.1786689758300781
21,23,x,-,-,True,0.4540891647338867
21,23,y,-,-,True,0.4676978588104248
21,23,w,-,-,True,0.46288347244262695
21,23,d,-,-,True,0.4841163158416748
21,23,y,m,-,False,0.4355144500732422
21,23,v,-,-,True,0.4733905792236328
21,23,s,-,-,True,0.48938584327697754
21,23,t,-,-,True,0.4411435127258301
21,23,v,m,-,False,0.4292740821838379
21,23,s,m,m,True,0.43433046340942383
21,23,b,-,-,True,0.5623846054077148
21,23,v,m,-,False,0.4858696460723877
21,23,s,m,-,False,0.9296092987060547
21,23,h,-,-,True,0.758922815322876
21,23,k,-,-,True,0.5759158134460449
21,23,s,m,m,True,0.6343250274658203
21,23,j,-,-,True,0.5046801567077637
21,23,j,-,-,True,0.604729413986206
21,23,b,-,-,True,0.7709002494812012
21,23,s,-,-,True,0.5615382194519043
21,23,z,-,-,True,0.5809147357940674
21,23,b,m,-,False,1.0472795963287354
21,23,s,m,-,False,0.9372146129608154
22,23,z,-,-,True,0.5750267505645752
22,23,r,-,-,True,0.5679781436920166
22,23,j,-,-,True,0.46538805961608887
22,23,x,-,-,True,0.44861745834350586
22,23,t,-,-,True,0.5451552867889404
22,23,q,-,-,True,0.5697472095489502
22,23,v,-,-,True,0.4386570453643799
22,23,r,-,-,True,0.5391688346862793
22,23,q,m,-,False,0.4920921325683594
22,23,x,-,-,True,0.4794731140136719
22,23,r,m,-,False,0.6187331676483154
22,23,t,-,m,False,0.48856067657470703
22,23,x,m,-,False,0.5788273811340332
22,23,v,-,-,True,0.9978282451629639
22,23,t,m,-,False,0.5188367366790771
22,23,z,-,-,True,0.47743773460388184
22,23,z,-,m,False,0.5805976390838623
22,23,n,-,-,True,0.9739382266998291
22,23,z,m,m,True,0.5173258781433105
22,23,p,-,-,True,0.4813237190246582
22,23,n,m,-,False,0.45347166061401367
22,23,j,-,-,True,0.5328559875488281
22,23,p,m,-,False,1.060563087463379
22,23,n,m,m,True,0.549884557723999
23,23,c,-,-,True,0.9392998218536377
23,23,j,-,-,True,0.9384603500366211
23,23,h,-,-,True,0.4707760810852051
23,23,v,-,-,True,0.551673173904419
23,23,j,m,-,False,0.4672534465789795
23,23,y,-,-,True,0.4715747833251953
23,23,d,-,-,True,0.5392844676971436
23,23,w,-,-,True,0.9891233444213867
23,23,t,-,-,True,1.4360065460205078
23,23,y,-,-,True,0.5583693981170654
23,23,k,-,-,True,0.9839003086090088
23,23,v,-,-,True,0.42491960525512695
23,23,n,-,-,True,0.5555462837219238
23,23,t,-,-,True,0.6591808795928955
23,23,v,m,m,True,0.44985437393188477
23,23,n,m,-,False,0.5965089797973633
23,23,t,m,-,False,0.5700743198394775
23,23,v,m,m,True,0.5881929397583008
23,23,n,m,-,False,0.9494433403015137
23,23,t,m,-,False,0.9870047569274902
23,23,r,-,-,True,0.6586024761199951
23,23,b,-,-,True,0.6020610332489014
23,23,d,-,-,True,0.4861030578613281
23,23,r,m,-,False,0.5430114269256592
24,23,v,-,-,True,1.1146883964538574
24,23,g,-,-,True,0.90769362449646
24,23,h,-,-,True,0.4772472381591797
24,23,c,-,-,True,0.5629830360412598
24,23,g,m,-,False,0.580315351486206
24,23,h,m,-,False,0.5811700820922852
24,23,c,m,m,True,0.7094998359680176
24,23,v,-,-,True,0.5108859539031982
24,23,w,-,-,True,0.613004207611084
24,23,y,-,-,True,0.5973865985870361
24,23,r,-,-,True,0.590601921081543
24,23,w,m,-,False,0.4712350368499756
24,23,y,m,-,False,0.5198028087615967
24,23,q,-,-,True,0.5850784778594971
24,23,z,-,-,True,0.5975792407989502
24,23,h,-,-,True,0.49617719650268555
24,23,f,-,-,True,0.48964881896972656
24,23,z,m,-,False,0.509263277053833
24,23,h,m,-,False,0.5205895900726318
24,23,x,-,-,True,0.5870692729949951
24,23,v,-,-,True,0.6070244312286377
24,23,h,m,-,False,0.5978636741638184
24,23,k,-,-,True,0.6242754459381104
24,23,p,-,-,True,0.6280026435852051
25,23,y,-,-,True,0.5813217163085938
25,23,l,-,-,True,0.5658738613128662
25,23,l,-,-,True,0.5616285800933838
25,23,q,-,-,True,0.575951099395752
25,23,l,m,m,True,0.5061421394348145
25,23,x,-,-,True,0.6709272861480713
25,23,s,-,-,True,0.5144891738891602
25,23,j,-,-,True,1.0365574359893799
25,23,x,m,-,False,0.6418559551239014
25,23,s,m,-,False,0.5882635116577148
25,23,j,m,-,False,0.5708107948303223
25,23,d,-,-,True,0.5873847007751465
25,23,k,-,-,True,1.0389819145202637
25,23,q,-,-,True,0.4619107246398926
25,23,s,-,-,True,0.48984217643737793
25,23,d,-,-,True,0.6015057563781738
25,23,z,-,-,True,0.5178337097167969
25,23,s,m,-,False,1.018599271774292
25,23,h,-,-,True,0.5174374580383301
25,23,z,m,-,False,0.6150767803192139
25,23,p,-,-,True,0.5255894660949707
25,23,h,m,-,False,0.5177583694458008
25,23,z,m,-,False,0.530576229095459
25,23,y,-,-,True,0.5049722194671631
26,23,j,-,-,True,1.155897855758667
26,23,t,-,-,True,0.9605445861816406
26,23,f,-,-,True,0.9211921691894531
26,23,j,m,-,False,0.5677914619445801
26,23,t,m,-,False,0.6392767429351807
26,23,f,m,-,False,0.4863619804382324
26,23,p,-,-,True,0.5830273628234863
26,23,t,m,m,True,0.6395175457000732
26,23,y,-,-,True,0.760761022567749
26,23,f,-,-,True,0.5737917423248291
26,23,x,-,-,True,0.5181663036346436
26,23,c,-,-,True,0.46417903900146484
26,23,k,-,-,True,0.6007368564605713
26,23,q,-,-,True,0.7165851593017578
26,23,j,-,-,True,0.49445581436157227
26,23,r,-,-,True,0.49988794326782227
26,23,q,m,-,False,0.48375749588012695
26,23,g,-,-,True,0.909031867980957
26,23,f,-,-,True,0.6085281372070312
26,23,q,m,-,False,0.9927926063537598
26,23,g,m,-,False,0.5057985782623291
26,23,f,m,-,False,0.6098237037658691
26,23,h,-,-,True,0.6093933582305908
26,23,k,-,-,True,0.9956629276275635
27,23,w,-,-,True,1.0077710151672363
27,23,q,-,-,True,0.5516500473022461
27,23,s,-,-,True,1.4650084972381592
27,23,w,m,-,False,0.49111461639404297
27,23,t,-,-,True,0.4644932746887207
27,23,s,m,-,False,0.9914493560791016
27,23,w,m,-,False,0.6164224147796631
27,23,z,-,-,True,0.43500566482543945
27,23,g,-,-,True,0.9306213855743408
27,23,j,-,-,True,0.7643718719482422
27,23,h,-,-,True,0.48203587532043457
27,23,g,m,m,True,0.587989091873169
27,23,y,-,-,True,0.8196878433227539
27,23,h,m,-,False,0.7848420143127441
27,23,c,-,-,True,0.5090720653533936
27,23,y,m,-,False,0.5043134689331055
27,23,q,-,-,True,0.5156054496765137
27,23,d,-,-,True,0.5179581642150879
27,23,r,-,-,True,0.7998182773590088
27,23,q,m,m,True,0.4626343250274658
27,23,r,-,-,True,1.0859098434448242
27,23,x,-,-,True,0.6106798648834229
27,23,c,-,-,True,0.49219322204589844
27,23,r,m,m,True,28.652186393737793
28,23,c,-,-,True,1.0476124286651611
28,23,j,-,-,True,0.5996596813201904
28,23,x,-,-,True,0.49132466316223145
28,23,f,-,-,True,0.5666296482086182
28,23,t,-,-,True,0.5142638683319092
28,23,x,m,-,False,0.5334200859069824
28,23,c,-,-,True,0.6637673377990723
28,23,t,m,-,False,1.4887585639953613
28,23,q,-,-,True,0.516371488571167
28,23,c,m,m,True,0.924314022064209
28,23,r,-,-,True,0.5777468681335449
28,23,q,m,-,False,0.6335539817810059
28,23,c,m,-,False,1.0176622867584229
28,23,f,-,m,False,0.5134618282318115
28,23,v,-,-,True,0.5346622467041016
28,23,t,-,m,False,0.5976645946502686
28,23,f,m,-,False,0.5344297885894775
28,23,v,m,-,False,0.6107203960418701
28,23,t,m,-,False,0.5199582576751709
28,23,v,-,m,False,0.5957093238830566
28,23,r,-,-,True,0.6213500499725342
28,23,l,-,-,True,0.875075101852417
28,23,y,-,-,True,0.5522339344024658
28,23,p,-,-,True,0.746436357498169
29,23,z,-,-,True,0.9852020740509033
29,23,w,-,-,True,0.5794041156768799
29,23,c,-,-,True,0.4951157569885254
29,23,z,m,-,False,0.4983541965484619
29,23,w,m,m,True,0.507394552230835
29,23,s,-,-,True,0.9262135028839111
29,23,z,m,-,False,0.5049934387207031
29,23,q,-,-,True,0.4445335865020752
29,23,s,m,m,True,0.4555549621582031
29,23,z,m,-,False,0.5537083148956299
29,23,v,-,-,True,0.5757887363433838
29,23,s,m,m,True,0.6253223419189453
29,23,z,m,-,False,0.500269889831543
29,23,g,-,-,True,0.5007400512695312
29,23,z,-,-,True,0.9255728721618652
29,23,t,-,-,True,0.5289120674133301
29,23,w,-,m,False,0.5149400234222412
29,23,w,-,-,True,0.4663257598876953
29,23,g,-,-,True,0.4886951446533203
29,23,w,m,-,False,1.0957458019256592
29,23,s,-,m,False,1.5902469158172607
29,23,b,-,-,True,0.5895452499389648
29,23,q,-,-,True,0.759882926940918
29,23,n,-,-,True,0.5953099727630615
30,23,p,-,-,True,2.038419008255005
30,23,h,-,-,True,0.4513742923736572
30,23,y,-,-,True,0.5197985172271729
30,23,x,-,-,True,0.5911500453948975
30,23,h,m,-,False,0.5575463771820068
30,23,y,m,-,False,0.4482612609863281
30,23,b,-,-,True,0.5094430446624756
30,23,k,-,-,True,0.7057011127471924
30,23,g,-,-,True,0.6520764827728271
30,23,y,-,-,True,0.5868375301361084
30,23,y,-,-,True,0.6898236274719238
30,23,v,-,-,True,0.48798584938049316
30,23,y,m,-,False,0.5188169479370117
30,23,c,-,-,True,0.49444127082824707
30,23,h,-,-,True,0.4842360019683838
30,23,y,m,-,False,0.6383066177368164
30,23,c,m,-,False,0.595501184463501
30,23,b,-,-,True,0.4826064109802246
30,23,k,-,-,True,1.0167922973632812
30,23,c,m,m,True,1.0411765575408936
30,23,t,-,-,True,0.5143570899963379
30,23,k,m,m,True,0.51894211769104
30,23,z,-,-,True,0.6767971515655518
30,23,t,m,-,False,0.46974873542785645
31,23,t,-,-,True,1.0617237091064453
31,23,r,-,-,True,0.6236333847045898
31,23,d,-,-,True,0.5779895782470703
31,23,f,-,-,True,0.5390448570251465
31,23,c,-,-,True,0.6476967334747314
31,23,d,m,-,False,1.4846911430358887
31,23,f,m,-,False,0.6826426982879639
31,23,x,-,-,True,0.5832793712615967
31,23,g,-,-,True,0.49053072929382324
31,23,f,m,m,True,0.5258100032806396
31,23,x,m,-,False,0.49317145347595215
31,23,g,m,-,False,0.5058326721191406
31,23,f,m,-,False,0.5179715156555176
31,23,h,-,-,True,0.9612846374511719
31,23,g,m,m,True,0.5185654163360596
31,23,d,-,-,True,0.45429325103759766
31,23,t,-,-,True,0.6658139228820801
31,23,r,-,-,True,0.6155083179473877
31,23,s,-,-,True,0.5281822681427002
31,23,h,-,-,True,1.0038881301879883
31,23,f,-,m,False,0.895319938659668
31,23,s,m,-,False,0.6760768890380859
31,23,v,-,-,True,0.5544033050537109
31,23,q,-,-,True,0.5701448917388916
32,23,k,-,-,True,0.6040756702423096
32,23,b,-,-,True,0.5944750308990479
32,23,j,-,-,True,0.4876058101654053
32,23,v,-,-,True,0.5959327220916748
32,23,z,-,-,True,0.5919833183288574
32,23,s,-,-,True,0.9186980724334717
32,23,g,-,-,True,0.5049927234649658
32,23,z,m,-,False,0.9342477321624756
32,23,x,-,-,True,1.0144076347351074
32,23,g,m,m,True,0.6638627052307129
32,23,z,m,-,False,0.5992898941040039
32,23,k,-,-,True,0.6164646148681641
32,23,g,m,-,False,0.6323604583740234
32,23,t,-,-,True,0.8038980960845947
32,23,k,m,-,False,1.513749599456787
32,23,l,-,-,True,0.9435153007507324
32,23,t,m,-,False,0.5147483348846436
32,23,k,m,-,False,1.0237116813659668
32,23,x,-,-,True,0.5087871551513672
32,23,r,-,-,True,0.5920279026031494
32,23,y,-,-,True,0.9955759048461914
32,23,y,-,-,True,0.6463992595672607
32,23,r,m,m,True,1.014873743057251
32,23,s,-,-,True,0.6851415634155273
33,23,k,-,-,True,0.9239089488983154
33,23,j,-,-,True,0.9990580081939697
33,23,w,-,-,True,0.48015737533569336
33,23,j,-,-,True,0.6008563041687012
33,23,j,m,m,True,0.5721993446350098
33,23,x,-,-,True,0.4863550662994385
33,23,j,m,-,False,0.9575114250183105
33,23,c,-,-,True,0.5009894371032715
33,23,x,m,-,False,0.5736391544342041
33,23,y,-,-,True,0.6315791606903076
33,23,b,-,-,True,0.47025251388549805
33,23,x,m,-,False,0.5966529846191406
33,23,q,-,-,True,0.5425899028778076
33,23,b,m,m,True,0.635875940322876
33,23,s,-,-,True,0.5346529483795166
33,23,z,-,-,True,1.011195421218872
33,23,h,-,-,True,0.5122792720794678
33,23,y,-,-,True,0.5316803455352783
33,23,x,-,-,True,0.5163004398345947
33,23,s,-,m,False,0.5328805446624756
33,23,y,m,-,False,0.9829912185668945
33,23,x,m,-,False,0.5195913314819336
33,23,s,m,m,True,0.5555739402770996
33,23,k,-,-,True,0.9736502170562744
34,23,x,-,-,True,0.5223462581634521
34,23,y,-,-,True,0.7196393013000488
34,23,v,-,-,True,0.570749044418335
34,23,x,m,-,False,0.5655419826507568
34,23,y,m,-,False,0.5126211643218994
34,23,v,m,m,True,0.48376035690307617
34,23,x,m,-,False,0.5879867076873779
34,23,l,-,-,True,0.6166555881500244
34,23,z,-,-,True,0.45246434211730957
34,23,c,-,-,True,0.975501298904419
34,23,z,-,-,True,0.5175623893737793
34,23,z,m,m,True,1.2443153858184814
34,23,c,m,-,False,0.6075685024261475
34,23,r,-,-,True,0.5919992923736572
34,23,b,-,-,True,0.4883155822753906
34,23,s,-,-,True,0.5275988578796387
34,23,s,-,m,False,0.46472644805908203
34,23,x,-,m,False,0.5094168186187744
34,23,v,-,INVALID:w,False,0.6211340427398682
34,23,b,-,-,True,0.5111277103424072
34,23,q,-,-,True,0.598992109298706
34,23,v,m,-,False,0.6069326400756836
34,23,b,m,-,False,0.5521807670593262
34,23,b,-,-,True,0.5153086185455322
35,23,q,-,-,True,0.4870595932006836
35,23,n,-,-,True,0.5060527324676514
35,23,p,-,-,True,0.7347338199615479
35,23,q,m,-,False,0.49887824058532715
35,23,n,m,m,True,1.4319908618927002
35,23,h,-,-,True,0.4868454933166504
35,23,c,-,-,True,0.5209262371063232
35,23,z,-,-,True,0.9796156883239746
35,23,y,-,-,True,0.5160961151123047
35,23,c,m,-,False,0.6445350646972656
35,23,f,-,-,True,0.44913482666015625
35,23,r,-,-,True,0.587334156036377
35,23,q,-,-,True,0.6272227764129639
35,23,f,m,-,False,0.6066703796386719
35,23,g,-,-,True,0.6156036853790283
35,23,q,m,-,False,0.5527546405792236
35,23,f,m,-,False,0.5965113639831543
35,23,g,m,-,False,0.6086916923522949
35,23,d,-,-,True,0.5336072444915771
35,23,f,m,-,False,0.6116476058959961
35,23,s,-,-,True,0.49280786514282227
35,23,h,-,-,True,0.4930849075317383
35,23,p,-,-,True,0.5371196269989014
35,23,y,-,-,True,0.6357088088989258
36,23,b,-,-,True,0.9389169216156006
36,23,s,-,-,True,0.7445619106292725
36,23,y,-,-,True,0.4758636951446533
36,23,w,-,-,True,0.5777544975280762
36,23,d,-,-,True,0.5810549259185791
36,23,d,-,-,True,0.5102434158325195
36,23,d,-,-,True,0.5050997734069824
36,23,l,-,-,True,0.516831636428833
36,23,d,m,-,False,0.4924020767211914
36,23,d,m,m,True,0.5007114410400391
36,23,l,m,-,False,0.521547794342041
36,23,d,m,-,False,0.6173617839813232
36,23,f,-,-,True,0.7772321701049805
36,23,l,m,-,False,0.9782283306121826
36,23,d,m,-,False,0.5164401531219482
36,23,k,-,-,True,0.49628782272338867
36,23,n,-,-,True,0.6131749153137207
36,23,y,-,-,True,0.6565673351287842
36,23,d,-,m,False,0.5157036781311035
36,23,b,-,-,True,0.4955625534057617
36,23,f,-,-,True,0.504225492477417
36,23,d,m,-,False,0.494159460067749
36,23,c,-,-,True,0.8103878498077393
36,23,f,m,-,False,0.4975912570953369
37,23,f,-,-,True,1.3077600002288818
37,23,q,-,-,True,1.0019431114196777
37,23,b,-,-,True,0.4598255157470703
37,23,z,-,-,True,0.6528158187866211
37,23,q,m,-,False,0.4601306915283203
37,23,b,m,-,False,0.4727797508239746
37,23,j,-,-,True,0.47867870330810547
37,23,l,-,-,True,0.5862455368041992
37,23,b,m,m,True,0.4583554267883301
37,23,f,-,-,True,0.614382266998291
37,23,l,m,-,False,0.5099802017211914
37,23,b,m,-,False,0.5940265655517578
37,23,x,-,-,True,1.0404751300811768
37,23,t,-,-,True,0.5450849533081055
37,23,z,-,-,True,0.6858620643615723
37,23,h,-,-,True,0.7065658569335938
37,23,t,m,-,False,0.5196409225463867
37,23,z,m,-,False,0.6474747657775879
37,23,r,-,-,True,0.5036437511444092
37,23,v,-,-,True,0.722393274307251
37,23,v,-,m,False,0.7638928890228271
37,23,d,-,-,True,0.5416944026947021
37,23,g,-,-,True,1.0113551616668701
37,23,v,m,-,False,0.5917813777923584
38,23,g,-,-,True,0.8827259540557861
38,23,j,-,-,True,0.527097225189209
38,23,p,-,-,True,0.6035985946655273
38,23,g,m,-,False,0.5164155960083008
38,23,z,-,-,True,0.5980327129364014
38,23,p,m,-,False,0.6533422470092773
38,23,g,m,m,True,0.48424291610717773
38,23,f,-,-,True,0.5738582611083984
38,23,p,m,-,False,0.8562717437744141
38,23,b,-,-,True,0.4608943462371826
38,23,f,m,-,False,0.9263617992401123
38,23,z,-,-,True,0.4753894805908203
38,23,s,-,-,True,0.625784158706665
38,23,f,m,-,False,0.4185490608215332
38,23,p,-,-,True,0.5009417533874512
38,23,n,-,-,True,0.602156400680542
38,23,q,-,-,True,0.9103608131408691
38,23,v,-,-,True,0.4190332889556885
38,23,k,-,-,True,0.5813238620758057
38,23,q,m,-,False,1.4561429023742676
38,23,v,m,m,True,0.6533751487731934
38,23,n,-,m,False,39.266966104507446
38,23,y,-,-,True,0.8103621006011963
38,23,t,-,-,True,0.7311201095581055
39,23,r,-,-,True,0.9732105731964111
39,23,y,-,-,True,0.8951506614685059
39,23,w,-,-,True,0.9233837127685547
39,23,b,-,-,True,0.43357276916503906
39,23,k,-,-,True,0.6489298343658447
39,23,r,-,-,True,0.455385684967041
39,23,w,-,-,True,0.7175908088684082
39,23,k,m,m,True,0.5112705230712891
39,23,r,m,-,False,0.8799238204956055
39,23,v,-,-,True,0.4511899948120117
39,23,k,m,-,False,0.7612869739532471
39,23,s,-,-,True,0.43468546867370605
39,23,p,-,-,True,0.4765818119049072
39,23,s,-,m,False,0.4685389995574951
39,23,s,m,-,False,0.47371721267700195
39,23,p,m,-,False,0.9711313247680664
39,23,b,-,-,True,1.4544079303741455
39,23,s,m,m,True,0.4673807621002197
39,23,c,-,-,True,0.5387120246887207
39,23,b,m,-,False,0.46830224990844727
39,23,s,m,-,False,0.4825139045715332
39,23,t,-,-,True,0.597670316696167
39,23,q,-,-,True,0.4644622802734375
39,23,l,-,-,True,0.7773740291595459
40,23,f,-,-,True,0.9304807186126709
40,23,k,-,-,True,0.43652820587158203
40,23,h,-,-,True,0.522749662399292
40,23,k,-,-,True,0.46509599685668945
40,23,k,m,m,True,0.9566709995269775
40,23,h,m,-,False,0.5474452972412109
40,23,k,m,m,True,0.48135828971862793
40,23,g,-,-,True,0.5216224193572998
40,23,n,-,-,True,0.44881558418273926
40,23,n,-,m,False,0.4618957042694092
40,23,g,m,-,False,0.5829317569732666
40,23,y,-,-,True,0.42229485511779785
40,23,f,-,-,True,0.9647324085235596
40,23,d,-,-,True,0.5030999183654785
40,23,d,-,-,True,0.9925181865692139
40,23,f,m,-,False,0.4883096218109131
40,23,d,m,m,True,0.6992721557617188
40,23,b,-,-,True,0.47303175926208496
40,23,f,m,-,False,0.5002703666687012
40,23,h,-,-,True,0.5633795261383057
40,23,l,-,INVALID:h,False,0.9543805122375488
40,23,h,-,m,False,0.5951204299926758
40,23,p,-,-,True,0.6277532577514648
40,23,l,m,INVALID:p,False,0.5310323238372803
41,23,h,-,-,True,0.6069765090942383
41,23,w,-,-,True,0.5232954025268555
41,23,c,-,-,True,0.5193977355957031
41,23,c,-,-,True,1.0241589546203613
41,23,w,m,-,False,0.5757043361663818
41,23,y,-,-,True,0.45154333114624023
41,23,l,-,-,True,0.5687501430511475
41,23,w,m,m,True,0.4472827911376953
41,23,y,m,-,False,0.4861576557159424
41,23,l,m,-,False,0.6416778564453125
41,23,f,-,-,True,0.5711648464202881
41,23,f,-,m,False,0.6206116676330566
41,23,l,m,-,False,0.5664000511169434
41,23,v,-,-,True,0.45484185218811035
41,23,f,m,-,False,0.5637044906616211
41,23,d,-,-,True,0.565476655960083
41,23,v,m,-,False,0.4365377426147461
41,23,j,-,-,True,0.5051100254058838
41,23,d,m,-,False,0.7560510635375977
41,23,w,-,-,True,0.47295355796813965
41,23,b,-,-,True,0.5002710819244385
41,23,f,-,m,False,0.47582054138183594
41,23,f,-,m,False,0.7025971412658691
41,23,l,-,-,True,0.5054230690002441
42,23,x,-,-,True,0.5338308811187744
42,23,s,-,-,True,0.4648716449737549
42,23,h,-,-,True,0.45854926109313965
42,23,b,-,-,True,1.428910732269287
42,23,s,m,m,True,0.6146655082702637
42,23,l,-,-,True,0.5524213314056396
42,23,l,-,-,True,0.47510290145874023
42,23,h,-,-,True,0.5567793846130371
42,23,y,-,-,True,0.45128846168518066
42,23,g,-,-,True,0.5620498657226562
42,23,h,m,-,False,0.6661355495452881
42,23,h,-,m,False,0.4946143627166748
42,23,g,m,-,False,0.4592466354370117
42,23,h,m,-,False,0.5696008205413818
42,23,h,m,m,True,0.46790099143981934
42,23,g,m,-,False,0.5696232318878174
42,23,h,m,-,False,0.9618122577667236
42,23,h,m,m,True,0.9891388416290283
42,23,t,-,-,True,0.7079684734344482
42,23,q,-,-,True,0.6136376857757568
42,23,k,-,-,True,0.47094178199768066
42,23,k,-,m,False,0.4900050163269043
42,23,z,-,-,True,0.465395450592041
42,23,y,-,-,True,0.48909974098205566
43,23,d,-,-,True,0.8362185955047607
43,23,r,-,-,True,0.43700337409973145
43,23,k,-,-,True,0.7509462833404541
43,23,d,m,-,False,0.541468620300293
43,23,r,m,m,True,0.6122267246246338
43,23,l,-,-,True,0.4437425136566162
43,23,d,m,-,False,0.5401532649993896
43,23,s,-,-,True,0.983769416809082
43,23,s,-,-,True,0.6509275436401367
43,23,c,-,m,False,0.5650227069854736
43,23,p,-,-,True,0.4649338722229004
43,23,h,-,-,True,0.5613844394683838
43,23,c,m,-,False,0.5902717113494873
43,23,p,m,-,False,0.943812370300293
43,23,y,-,-,True,0.9508705139160156
43,23,n,-,m,False,0.49361538887023926
43,23,t,-,-,True,0.552985668182373
43,23,y,m,-,False,0.7265465259552002
43,23,l,-,-,True,0.47240185737609863
43,23,t,m,-,False,0.4673805236816406
43,23,d,-,-,True,0.4698801040649414
43,23,p,-,-,True,1.0019917488098145
43,23,t,m,-,False,0.7320022583007812
43,23,c,-,-,True,0.7080528736114502
44,23,w,-,-,True,0.8403425216674805
44,23,j,-,-,True,0.948822021484375
44,23,p,-,-,True,0.41617393493652344
44,23,n,-,-,True,0.9458749294281006
44,23,j,m,-,False,0.5660521984100342
44,23,v,-,-,True,0.9453713893890381
44,23,t,-,-,True,0.5277078151702881
44,23,q,-,-,True,1.0180490016937256
44,23,v,m,-,False,0.47583937644958496
44,23,l,-,-,True,0.5697908401489258
44,23,q,m,m,True,0.5663182735443115
44,23,v,m,-,False,0.4632282257080078
44,23,z,-,-,True,0.9389901161193848
44,23,p,-,-,True,0.5674114227294922
44,23,v,m,m,True,0.5922067165374756
44,23,z,m,-,False,0.6923317909240723
44,23,p,m,m,True,0.7369515895843506
44,23,v,m,m,True,0.47775912284851074
44,23,q,-,m,False,0.5531249046325684
44,23,q,-,m,False,0.46096229553222656
44,23,g,-,-,True,0.7470219135284424
44,23,d,-,-,True,1.0103836059570312
44,23,n,-,-,True,0.5777599811553955
44,23,l,-,-,True,0.4097919464111328
45,23,h,-,-,True,1.3297991752624512
45,23,q,-,-,True,1.4501311779022217
45,23,b,-,-,True,1.000464916229248
45,23,r,-,-,True,0.6121976375579834
45,23,q,m,m,True,0.5902523994445801
45,23,k,-,-,True,0.9255681037902832
45,23,j,-,-,True,0.9790542125701904
45,23,q,m,-,False,0.49310922622680664
45,23,l,-,-,True,0.5463075637817383
45,23,n,-,-,True,0.5685079097747803
45,23,q,m,-,False,0.5303370952606201
45,23,s,-,-,True,0.49890565872192383
45,23,n,m,-,False,0.51487135887146
45,23,q,m,m,True,0.6755657196044922
45,23,j,-,-,True,0.6271936893463135
45,23,j,-,-,True,0.9959604740142822
45,23,q,m,-,False,0.5085155963897705
45,23,z,-,-,True,0.4711177349090576
45,23,c,-,-,True,0.5209558010101318
45,23,v,-,-,True,0.5120813846588135
45,23,z,m,-,False,0.5883016586303711
45,23,c,m,-,False,0.6409854888916016
45,23,g,-,-,True,0.614253044128418
45,23,v,-,-,True,0.7936403751373291
46,23,j,-,-,True,1.4706542491912842
46,23,t,-,-,True,0.4975309371948242
46,23,d,-,-,True,0.49215245246887207
46,23,j,m,-,False,0.5018925666809082
46,23,t,m,-,False,0.677797794342041
46,23,j,-,-,True,0.9765551090240479
46,23,j,m,m,True,0.43090391159057617
46,23,r,-,-,True,0.5875546932220459
46,23,w,-,-,True,0.6394603252410889
46,23,n,-,-,True,0.5142636299133301
46,23,r,m,-,False,0.49124836921691895
46,23,f,-,-,True,0.50614333152771
46,23,t,-,-,True,0.4976229667663574
46,23,g,-,-,True,1.2297334671020508
46,23,f,m,-,False,0.8006794452667236
46,23,l,-,-,True,0.5286633968353271
46,23,g,m,-,False,0.802415132522583
46,23,f,m,m,True,0.6019341945648193
46,23,x,-,-,True,0.5809211730957031
46,23,g,m,-,False,0.4860351085662842
46,23,r,-,-,True,1.49397611618042
46,23,f,-,m,False,0.5232489109039307
46,23,c,-,-,True,0.5003986358642578
46,23,g,-,-,True,0.6166837215423584
47,23,j,-,-,True,1.853867530822754
47,23,p,-,-,True,0.45523715019226074
47,23,t,-,-,True,1.297351360321045
47,23,n,-,-,True,0.962244987487793
47,23,t,-,-,True,0.4854927062988281
47,23,t,m,-,False,0.46921539306640625
47,23,r,-,-,True,0.9157161712646484
47,23,v,-,-,True,0.4770638942718506
47,23,b,-,-,True,0.4707481861114502
47,23,q,-,-,True,0.6070387363433838
47,23,v,m,-,False,1.0309116840362549
47,23,b,m,-,False,0.44240307807922363
47,23,q,m,-,False,0.7164039611816406
47,23,w,-,-,True,0.5097582340240479
47,23,d,-,-,True,0.44768357276916504
47,23,b,-,m,False,0.6847383975982666
47,23,w,m,-,False,0.4907572269439697
47,23,d,m,-,False,0.4906005859375
47,23,y,-,-,True,0.4780457019805908
47,23,w,m,-,False,0.48382568359375
47,23,s,-,m,False,0.5901708602905273
47,23,r,-,-,True,0.4935140609741211
47,23,w,m,-,False,0.5040872097015381
47,23,f,-,-,True,0.5855014324188232
48,23,k,-,-,True,0.4911322593688965
48,23,g,-,-,True,0.46677708625793457
48,23,t,-,-,True,0.5680069923400879
48,23,k,m,-,False,1.4835548400878906
48,23,c,-,-,True,0.412792444229126
48,23,d,-,-,True,1.4591121673583984
48,23,y,-,-,True,0.5937025547027588
48,23,b,-,-,True,0.4927182197570801
48,23,d,m,-,False,0.501662015914917
48,23,d,-,m,False,0.4831736087799072
48,23,b,m,-,False,0.4740626811981201
48,23,h,-,-,True,0.566286563873291
48,23,g,-,-,True,0.487473726272583
48,23,t,-,-,True,0.7357983589172363
48,23,y,-,-,True,0.576662540435791
48,23,g,m,-,False,0.5151729583740234
48,23,t,m,-,False,0.48317980766296387
48,23,y,m,-,False,0.6026875972747803
48,23,c,-,-,True,0.5258171558380127
48,23,d,-,-,True,0.8198602199554443
48,23,b,-,-,True,0.5681178569793701
48,23,z,-,-,True,0.533055305480957
48,23,d,m,-,False,0.4853661060333252
48,23,b,m,-,False,0.5104048252105713
49,23,w,-,-,True,1.0630109310150146
49,23,q,-,-,True,0.4719686508178711
49,23,l,-,-,True,0.4493224620819092
49,23,w,m,-,False,0.9025700092315674
49,23,q,m,-,False,0.42272496223449707
49,23,l,m,-,False,0.4751279354095459
49,23,w,m,-,False,1.0062873363494873
49,23,t,-,-,True,0.5911743640899658
49,23,z,-,-,True,0.5596861839294434
49,23,p,-,-,True,0.7236950397491455
49,23,c,-,-,True,0.5874745845794678
49,23,l,-,m,False,0.5145702362060547
49,23,q,-,-,True,0.5917413234710693
49,23,c,m,-,False,0.5204615592956543
49,23,l,m,-,False,1.4654877185821533
49,23,z,-,-,True,0.5000119209289551
49,23,s,-,-,True,0.5934329032897949
49,23,v,-,-,True,0.46830105781555176
49,23,z,m,-,False,0.4766571521759033
49,23,t,-,-,True,0.4828324317932129
49,23,v,m,m,True,0.7124214172363281
49,23,x,-,-,True,0.619279146194458
49,23,w,-,-,True,0.5536201000213623
49,23,l,-,-,True,0.5924310684204102
